"STUDYID","USUBJID","SUBJID","TRT01P","TRT01PN","TRT01A","TRT01AN","TRTSDT","TRTEDT","SAFFL","ASEQ","AESEQ","AETERM","AEDECOD","AESEV","AESER","AEOUT","AESTDTC","AEENDTC","ASTDT","AENDT","ASTDY","AENDY","EPOCH","TRTEMFL","SRCDOM","SRCVAR","SRCSEQ"
"ABC101","ABC-001","001","Drug 10 mg",1,"Drug 10 mg",1,2025-01-01,2025-03-26,"Y",1,1,"Nausea","NAUSEA","MILD","N","RECOVERED","2025-04-15","2025-04-29",2025-04-15,2025-04-29,105,119,"FOLLOW-UP","Y","AE","AESEQ",1
"ABC101","ABC-002","002","Drug 20 mg",2,"Drug 20 mg",2,2025-01-01,2025-03-26,"Y",1,1,"Abdominal Pain","ABDOMINAL PAIN","MODERATE","N","RECOVERED","2025-05-05","2025-05-18",2025-05-05,2025-05-18,125,138,"FOLLOW-UP","","AE","AESEQ",1
"ABC101","ABC-003","003","Drug 10 mg",1,"Drug 10 mg",1,2025-01-01,2025-03-26,"Y",1,1,"Headache","HEADACHE","MODERATE","N","RECOVERING","2025-02-04","2025-02-15",2025-02-04,2025-02-15,35,46,"TREATMENT","Y","AE","AESEQ",1
"ABC101","ABC-004","004","Placebo",0,"Placebo",0,2025-01-01,2025-03-26,"Y",1,1,"Nausea","NAUSEA","MODERATE","N","RECOVERED","2025-03-23","2025-04-06",2025-03-23,2025-04-06,82,96,"TREATMENT","Y","AE","AESEQ",1
"ABC101","ABC-004","004","Placebo",0,"Placebo",0,2025-01-01,2025-03-26,"Y",2,2,"Nausea","NAUSEA","MILD","N","RECOVERED","2025-06-11","2025-06-19",2025-06-11,2025-06-19,162,170,"FOLLOW-UP","","AE","AESEQ",2
"ABC101","ABC-004","004","Placebo",0,"Placebo",0,2025-01-01,2025-03-26,"Y",3,3,"Upper Respiratory Infection","UPPER RESPIRATORY INFECTION","SEVERE","N","RECOVERED","2025-04-02","2025-04-11",2025-04-02,2025-04-11,92,101,"FOLLOW-UP","Y","AE","AESEQ",3
"ABC101","ABC-005","005","Drug 20 mg",2,"Drug 20 mg",2,2025-01-01,2025-03-26,"Y",1,1,"Headache","HEADACHE","MODERATE","N","RECOVERED","2025-04-18","2025-04-21",2025-04-18,2025-04-21,108,111,"FOLLOW-UP","Y","AE","AESEQ",1
"ABC101","ABC-005","005","Drug 20 mg",2,"Drug 20 mg",2,2025-01-01,2025-03-26,"Y",2,2,"Nausea","NAUSEA","MODERATE","N","RECOVERED","2025-01-25","2025-02-04",2025-01-25,2025-02-04,25,35,"TREATMENT","Y","AE","AESEQ",2
"ABC101","ABC-007","007","Drug 20 mg",2,"Drug 20 mg",2,2025-01-01,2025-03-26,"Y",1,1,"Nausea","NAUSEA","MILD","Y","RECOVERED","2025-03-28","2025-04-10",2025-03-28,2025-04-10,87,100,"FOLLOW-UP","Y","AE","AESEQ",1
"ABC101","ABC-008","008","Placebo",0,"Placebo",0,2025-01-01,2025-03-26,"Y",1,1,"Fatigue","FATIGUE","MILD","N","RECOVERING","2025-02-10","2025-02-15",2025-02-10,2025-02-15,41,46,"TREATMENT","Y","AE","AESEQ",1
"ABC101","ABC-009","009","Drug 20 mg",2,"Drug 20 mg",2,2025-01-01,2025-03-26,"Y",1,1,"Diarrhea","DIARRHEA","MILD","N","RECOVERED","2025-06-21","2025-06-29",2025-06-21,2025-06-29,172,180,"FOLLOW-UP","","AE","AESEQ",1
"ABC101","ABC-009","009","Drug 20 mg",2,"Drug 20 mg",2,2025-01-01,2025-03-26,"Y",2,2,"Abdominal Pain","ABDOMINAL PAIN","MODERATE","N","NOT RECOVERED","2025-05-23","2025-05-26",2025-05-23,2025-05-26,143,146,"FOLLOW-UP","","AE","AESEQ",2
"ABC101","ABC-009","009","Drug 20 mg",2,"Drug 20 mg",2,2025-01-01,2025-03-26,"Y",3,3,"Injection Site Reaction","INJECTION SITE REACTION","MILD","N","RECOVERED","2025-04-18","2025-04-21",2025-04-18,2025-04-21,108,111,"FOLLOW-UP","Y","AE","AESEQ",3
"ABC101","ABC-009","009","Drug 20 mg",2,"Drug 20 mg",2,2025-01-01,2025-03-26,"Y",4,4,"Dizziness","DIZZINESS","MODERATE","N","RECOVERED","2025-04-28","2025-05-09",2025-04-28,2025-05-09,118,129,"FOLLOW-UP","","AE","AESEQ",4
"ABC101","ABC-010","010","Drug 10 mg",1,"Drug 10 mg",1,2025-01-01,2025-03-26,"Y",1,1,"Dizziness","DIZZINESS","MILD","N","RECOVERED","2025-01-09","2025-01-14",2025-01-09,2025-01-14,9,14,"TREATMENT","Y","AE","AESEQ",1
"ABC101","ABC-010","010","Drug 10 mg",1,"Drug 10 mg",1,2025-01-01,2025-03-26,"Y",2,2,"Upper Respiratory Infection","UPPER RESPIRATORY INFECTION","MILD","N","RECOVERED","2025-05-18","2025-05-25",2025-05-18,2025-05-25,138,145,"FOLLOW-UP","","AE","AESEQ",2
"ABC101","ABC-010","010","Drug 10 mg",1,"Drug 10 mg",1,2025-01-01,2025-03-26,"Y",3,3,"Dizziness","DIZZINESS","MILD","N","RECOVERING","2025-04-07","2025-04-19",2025-04-07,2025-04-19,97,109,"FOLLOW-UP","Y","AE","AESEQ",3
"ABC101","ABC-012","012","Drug 10 mg",1,"Drug 10 mg",1,2025-01-01,2025-03-26,"Y",1,1,"Dizziness","DIZZINESS","SEVERE","N","RECOVERED","2025-04-17","2025-04-25",2025-04-17,2025-04-25,107,115,"FOLLOW-UP","Y","AE","AESEQ",1
"ABC101","ABC-012","012","Drug 10 mg",1,"Drug 10 mg",1,2025-01-01,2025-03-26,"Y",2,2,"Dizziness","DIZZINESS","MILD","N","RECOVERED","2025-05-18","2025-05-31",2025-05-18,2025-05-31,138,151,"FOLLOW-UP","","AE","AESEQ",2
"ABC101","ABC-012","012","Drug 10 mg",1,"Drug 10 mg",1,2025-01-01,2025-03-26,"Y",3,3,"Diarrhea","DIARRHEA","MILD","N","NOT RECOVERED","2025-04-05","2025-04-08",2025-04-05,2025-04-08,95,98,"FOLLOW-UP","Y","AE","AESEQ",3
"ABC101","ABC-013","013","Drug 20 mg",2,"Drug 20 mg",2,2025-01-01,2025-03-26,"Y",1,1,"Abdominal Pain","ABDOMINAL PAIN","MODERATE","Y","RECOVERED","2025-03-29","2025-04-12",2025-03-29,2025-04-12,88,102,"FOLLOW-UP","Y","AE","AESEQ",1
"ABC101","ABC-013","013","Drug 20 mg",2,"Drug 20 mg",2,2025-01-01,2025-03-26,"Y",2,2,"Upper Respiratory Infection","UPPER RESPIRATORY INFECTION","MODERATE","N","RECOVERED","2025-05-27","2025-06-08",2025-05-27,2025-06-08,147,159,"FOLLOW-UP","","AE","AESEQ",2
"ABC101","ABC-014","014","Placebo",0,"Placebo",0,2025-01-01,2025-03-26,"Y",1,1,"Dizziness","DIZZINESS","MODERATE","N","RECOVERED","2025-05-12","2025-05-24",2025-05-12,2025-05-24,132,144,"FOLLOW-UP","","AE","AESEQ",1
"ABC101","ABC-015","015","Placebo",0,"Placebo",0,2025-01-01,2025-03-26,"Y",1,1,"Injection Site Reaction","INJECTION SITE REACTION","MODERATE","N","RECOVERED","2025-05-31","2025-06-01",2025-05-31,2025-06-01,151,152,"FOLLOW-UP","","AE","AESEQ",1
"ABC101","ABC-017","017","Drug 10 mg",1,"Drug 10 mg",1,2025-01-01,2025-03-26,"Y",1,1,"Injection Site Reaction","INJECTION SITE REACTION","MILD","N","NOT RECOVERED","2025-02-05","2025-02-07",2025-02-05,2025-02-07,36,38,"TREATMENT","Y","AE","AESEQ",1
"ABC101","ABC-017","017","Drug 10 mg",1,"Drug 10 mg",1,2025-01-01,2025-03-26,"Y",2,2,"Injection Site Reaction","INJECTION SITE REACTION","MILD","N","RECOVERED","2025-06-15","2025-06-18",2025-06-15,2025-06-18,166,169,"FOLLOW-UP","","AE","AESEQ",2
"ABC101","ABC-017","017","Drug 10 mg",1,"Drug 10 mg",1,2025-01-01,2025-03-26,"Y",3,3,"Nausea","NAUSEA","MILD","N","RECOVERED","2025-06-04","2025-06-18",2025-06-04,2025-06-18,155,169,"FOLLOW-UP","","AE","AESEQ",3
"ABC101","ABC-018","018","Drug 20 mg",2,"Drug 20 mg",2,2025-01-01,2025-03-26,"Y",1,1,"Injection Site Reaction","INJECTION SITE REACTION","MODERATE","N","RECOVERING","2025-01-23","2025-01-28",2025-01-23,2025-01-28,23,28,"TREATMENT","Y","AE","AESEQ",1
"ABC101","ABC-020","020","Drug 10 mg",1,"Drug 10 mg",1,2025-01-01,2025-03-26,"Y",1,1,"Injection Site Reaction","INJECTION SITE REACTION","MILD","N","RECOVERED","2025-05-30","2025-06-05",2025-05-30,2025-06-05,150,156,"FOLLOW-UP","","AE","AESEQ",1
"ABC101","ABC-020","020","Drug 10 mg",1,"Drug 10 mg",1,2025-01-01,2025-03-26,"Y",2,2,"Upper Respiratory Infection","UPPER RESPIRATORY INFECTION","MODERATE","N","RECOVERING","2025-05-03","2025-05-08",2025-05-03,2025-05-08,123,128,"FOLLOW-UP","","AE","AESEQ",2
"ABC101","ABC-021","021","Placebo",0,"Placebo",0,2025-01-01,2025-03-26,"Y",1,1,"Diarrhea","DIARRHEA","MILD","N","RECOVERING","2025-04-08","2025-04-18",2025-04-08,2025-04-18,98,108,"FOLLOW-UP","Y","AE","AESEQ",1
"ABC101","ABC-022","022","Drug 20 mg",2,"Drug 20 mg",2,2025-01-01,2025-03-26,"Y",1,1,"Fatigue","FATIGUE","MILD","N","RECOVERED","2025-06-05","2025-06-13",2025-06-05,2025-06-13,156,164,"FOLLOW-UP","","AE","AESEQ",1
"ABC101","ABC-023","023","Placebo",0,"Placebo",0,2025-01-01,2025-03-26,"Y",1,1,"Nausea","NAUSEA","MODERATE","N","RECOVERING","2025-03-15","2025-03-26",2025-03-15,2025-03-26,74,85,"TREATMENT","Y","AE","AESEQ",1
"ABC101","ABC-025","025","Drug 20 mg",2,"Drug 20 mg",2,2025-01-01,2025-03-26,"Y",1,1,"Abdominal Pain","ABDOMINAL PAIN","MILD","N","RECOVERED","2025-02-08","2025-02-09",2025-02-08,2025-02-09,39,40,"TREATMENT","Y","AE","AESEQ",1
"ABC101","ABC-025","025","Drug 20 mg",2,"Drug 20 mg",2,2025-01-01,2025-03-26,"Y",2,2,"Dizziness","DIZZINESS","MILD","N","RECOVERED","2025-03-01","2025-03-06",2025-03-01,2025-03-06,60,65,"TREATMENT","Y","AE","AESEQ",2
"ABC101","ABC-026","026","Drug 20 mg",2,"Drug 20 mg",2,2025-01-01,2025-03-26,"Y",1,1,"Upper Respiratory Infection","UPPER RESPIRATORY INFECTION","MILD","N","RECOVERED","2025-02-15","2025-02-21",2025-02-15,2025-02-21,46,52,"TREATMENT","Y","AE","AESEQ",1
"ABC101","ABC-027","027","Drug 20 mg",2,"Drug 20 mg",2,2025-01-01,2025-03-26,"Y",1,1,"Fatigue","FATIGUE","MILD","N","RECOVERED","2025-01-04","2025-01-10",2025-01-04,2025-01-10,4,10,"TREATMENT","Y","AE","AESEQ",1
"ABC101","ABC-027","027","Drug 20 mg",2,"Drug 20 mg",2,2025-01-01,2025-03-26,"Y",2,2,"Injection Site Reaction","INJECTION SITE REACTION","MILD","N","RECOVERED","2025-01-17","2025-01-24",2025-01-17,2025-01-24,17,24,"TREATMENT","Y","AE","AESEQ",2
"ABC101","ABC-027","027","Drug 20 mg",2,"Drug 20 mg",2,2025-01-01,2025-03-26,"Y",3,3,"Dizziness","DIZZINESS","MILD","N","RECOVERED","2025-02-16","2025-02-18",2025-02-16,2025-02-18,47,49,"TREATMENT","Y","AE","AESEQ",3
"ABC101","ABC-028","028","Drug 10 mg",1,"Drug 10 mg",1,2025-01-01,2025-03-26,"Y",1,1,"Diarrhea","DIARRHEA","MILD","N","RECOVERED","2025-03-30","2025-04-05",2025-03-30,2025-04-05,89,95,"FOLLOW-UP","Y","AE","AESEQ",1
"ABC101","ABC-029","029","Drug 10 mg",1,"Drug 10 mg",1,2025-01-01,2025-03-26,"Y",1,1,"Headache","HEADACHE","MILD","N","RECOVERED","2025-01-17","2025-01-28",2025-01-17,2025-01-28,17,28,"TREATMENT","Y","AE","AESEQ",1
"ABC101","ABC-030","030","Placebo",0,"Placebo",0,2025-01-01,2025-03-26,"Y",1,1,"Injection Site Reaction","INJECTION SITE REACTION","MODERATE","N","RECOVERING","2025-06-22","2025-06-27",2025-06-22,2025-06-27,173,178,"FOLLOW-UP","","AE","AESEQ",1
"ABC101","ABC-031","031","Placebo",0,"Placebo",0,2025-01-01,2025-03-26,"Y",1,1,"Fatigue","FATIGUE","MILD","N","RECOVERING","2025-06-14","2025-06-25",2025-06-14,2025-06-25,165,176,"FOLLOW-UP","","AE","AESEQ",1
"ABC101","ABC-031","031","Placebo",0,"Placebo",0,2025-01-01,2025-03-26,"Y",2,2,"Fatigue","FATIGUE","MODERATE","N","RECOVERED","2025-03-10","2025-03-15",2025-03-10,2025-03-15,69,74,"TREATMENT","Y","AE","AESEQ",2
"ABC101","ABC-031","031","Placebo",0,"Placebo",0,2025-01-01,2025-03-26,"Y",3,3,"Dizziness","DIZZINESS","MODERATE","N","RECOVERING","2025-05-04","2025-05-16",2025-05-04,2025-05-16,124,136,"FOLLOW-UP","","AE","AESEQ",3
"ABC101","ABC-032","032","Drug 20 mg",2,"Drug 20 mg",2,2025-01-01,2025-03-26,"Y",1,1,"Injection Site Reaction","INJECTION SITE REACTION","MODERATE","N","RECOVERED","2025-05-23","2025-05-25",2025-05-23,2025-05-25,143,145,"FOLLOW-UP","","AE","AESEQ",1
"ABC101","ABC-033","033","Drug 10 mg",1,"Drug 10 mg",1,2025-01-01,2025-03-26,"Y",1,1,"Diarrhea","DIARRHEA","MODERATE","N","RECOVERED","2025-03-06","2025-03-11",2025-03-06,2025-03-11,65,70,"TREATMENT","Y","AE","AESEQ",1
"ABC101","ABC-033","033","Drug 10 mg",1,"Drug 10 mg",1,2025-01-01,2025-03-26,"Y",2,2,"Fatigue","FATIGUE","MILD","N","RECOVERED","2025-02-22","2025-02-26",2025-02-22,2025-02-26,53,57,"TREATMENT","Y","AE","AESEQ",2
"ABC101","ABC-033","033","Drug 10 mg",1,"Drug 10 mg",1,2025-01-01,2025-03-26,"Y",3,3,"Fatigue","FATIGUE","MILD","N","RECOVERING","2025-05-04","2025-05-09",2025-05-04,2025-05-09,124,129,"FOLLOW-UP","","AE","AESEQ",3
"ABC101","ABC-033","033","Drug 10 mg",1,"Drug 10 mg",1,2025-01-01,2025-03-26,"Y",4,4,"Nausea","NAUSEA","MODERATE","N","RECOVERED","2025-02-02","2025-02-09",2025-02-02,2025-02-09,33,40,"TREATMENT","Y","AE","AESEQ",4
"ABC101","ABC-034","034","Placebo",0,"Placebo",0,2025-01-01,2025-03-26,"Y",1,1,"Nausea","NAUSEA","MODERATE","N","RECOVERING","2025-04-17","2025-04-22",2025-04-17,2025-04-22,107,112,"FOLLOW-UP","Y","AE","AESEQ",1
"ABC101","ABC-035","035","Drug 10 mg",1,"Drug 10 mg",1,2025-01-01,2025-03-26,"Y",1,1,"Fatigue","FATIGUE","MILD","N","RECOVERING","2025-03-22","2025-04-05",2025-03-22,2025-04-05,81,95,"TREATMENT","Y","AE","AESEQ",1
"ABC101","ABC-035","035","Drug 10 mg",1,"Drug 10 mg",1,2025-01-01,2025-03-26,"Y",2,2,"Diarrhea","DIARRHEA","MILD","N","NOT RECOVERED","2025-02-01","2025-02-13",2025-02-01,2025-02-13,32,44,"TREATMENT","Y","AE","AESEQ",2
"ABC101","ABC-037","037","Drug 10 mg",1,"Drug 10 mg",1,2025-01-01,2025-03-26,"Y",1,1,"Headache","HEADACHE","MILD","N","RECOVERED","2025-05-08","2025-05-15",2025-05-08,2025-05-15,128,135,"FOLLOW-UP","","AE","AESEQ",1
"ABC101","ABC-037","037","Drug 10 mg",1,"Drug 10 mg",1,2025-01-01,2025-03-26,"Y",2,2,"Upper Respiratory Infection","UPPER RESPIRATORY INFECTION","MODERATE","N","RECOVERED","2025-05-11","2025-05-21",2025-05-11,2025-05-21,131,141,"FOLLOW-UP","","AE","AESEQ",2
"ABC101","ABC-037","037","Drug 10 mg",1,"Drug 10 mg",1,2025-01-01,2025-03-26,"Y",3,3,"Diarrhea","DIARRHEA","MILD","N","RECOVERING","2025-03-26","2025-04-09",2025-03-26,2025-04-09,85,99,"TREATMENT","Y","AE","AESEQ",3
"ABC101","ABC-038","038","Placebo",0,"Placebo",0,2025-01-01,2025-03-26,"Y",1,1,"Nausea","NAUSEA","MILD","N","NOT RECOVERED","2025-01-06","2025-01-08",2025-01-06,2025-01-08,6,8,"TREATMENT","Y","AE","AESEQ",1
"ABC101","ABC-039","039","Drug 20 mg",2,"Drug 20 mg",2,2025-01-01,2025-03-26,"Y",1,1,"Diarrhea","DIARRHEA","MODERATE","N","RECOVERED","2025-01-20","2025-02-01",2025-01-20,2025-02-01,20,32,"TREATMENT","Y","AE","AESEQ",1
"ABC101","ABC-040","040","Drug 20 mg",2,"Drug 20 mg",2,2025-01-01,2025-03-26,"Y",1,1,"Fatigue","FATIGUE","MODERATE","N","RECOVERED","2025-02-17","2025-02-27",2025-02-17,2025-02-27,48,58,"TREATMENT","Y","AE","AESEQ",1
"ABC101","ABC-041","041","Drug 10 mg",1,"Drug 10 mg",1,2025-01-01,2025-03-26,"Y",1,1,"Injection Site Reaction","INJECTION SITE REACTION","MILD","N","RECOVERED","2025-06-11","2025-06-18",2025-06-11,2025-06-18,162,169,"FOLLOW-UP","","AE","AESEQ",1
"ABC101","ABC-042","042","Drug 10 mg",1,"Drug 10 mg",1,2025-01-01,2025-03-26,"Y",1,1,"Abdominal Pain","ABDOMINAL PAIN","MILD","N","RECOVERING","2025-04-13","2025-04-21",2025-04-13,2025-04-21,103,111,"FOLLOW-UP","Y","AE","AESEQ",1
"ABC101","ABC-042","042","Drug 10 mg",1,"Drug 10 mg",1,2025-01-01,2025-03-26,"Y",2,2,"Headache","HEADACHE","MILD","N","RECOVERING","2025-05-08","2025-05-14",2025-05-08,2025-05-14,128,134,"FOLLOW-UP","","AE","AESEQ",2
"ABC101","ABC-042","042","Drug 10 mg",1,"Drug 10 mg",1,2025-01-01,2025-03-26,"Y",3,3,"Diarrhea","DIARRHEA","MILD","N","RECOVERED","2025-01-14","2025-01-25",2025-01-14,2025-01-25,14,25,"TREATMENT","Y","AE","AESEQ",3
"ABC101","ABC-043","043","Drug 10 mg",1,"Drug 10 mg",1,2025-01-01,2025-03-26,"Y",1,1,"Upper Respiratory Infection","UPPER RESPIRATORY INFECTION","MILD","N","RECOVERED","2025-05-19","2025-05-31",2025-05-19,2025-05-31,139,151,"FOLLOW-UP","","AE","AESEQ",1
"ABC101","ABC-045","045","Drug 20 mg",2,"Drug 20 mg",2,2025-01-01,2025-03-26,"Y",1,1,"Upper Respiratory Infection","UPPER RESPIRATORY INFECTION","MILD","N","RECOVERED","2025-06-10","2025-06-23",2025-06-10,2025-06-23,161,174,"FOLLOW-UP","","AE","AESEQ",1
"ABC101","ABC-045","045","Drug 20 mg",2,"Drug 20 mg",2,2025-01-01,2025-03-26,"Y",2,2,"Injection Site Reaction","INJECTION SITE REACTION","MODERATE","N","RECOVERED","2025-03-12","2025-03-23",2025-03-12,2025-03-23,71,82,"TREATMENT","Y","AE","AESEQ",2
"ABC101","ABC-046","046","Placebo",0,"Placebo",0,2025-01-01,2025-03-26,"Y",1,1,"Upper Respiratory Infection","UPPER RESPIRATORY INFECTION","MILD","N","NOT RECOVERED","2025-06-08","2025-06-22",2025-06-08,2025-06-22,159,173,"FOLLOW-UP","","AE","AESEQ",1
"ABC101","ABC-046","046","Placebo",0,"Placebo",0,2025-01-01,2025-03-26,"Y",2,2,"Diarrhea","DIARRHEA","MILD","N","RECOVERED","2025-02-12","2025-02-23",2025-02-12,2025-02-23,43,54,"TREATMENT","Y","AE","AESEQ",2
"ABC101","ABC-046","046","Placebo",0,"Placebo",0,2025-01-01,2025-03-26,"Y",3,3,"Headache","HEADACHE","MILD","N","RECOVERING","2025-02-20","2025-02-26",2025-02-20,2025-02-26,51,57,"TREATMENT","Y","AE","AESEQ",3
"ABC101","ABC-047","047","Drug 10 mg",1,"Drug 10 mg",1,2025-01-01,2025-03-26,"Y",1,1,"Upper Respiratory Infection","UPPER RESPIRATORY INFECTION","MILD","N","RECOVERED","2025-06-04","2025-06-09",2025-06-04,2025-06-09,155,160,"FOLLOW-UP","","AE","AESEQ",1
"ABC101","ABC-048","048","Drug 20 mg",2,"Drug 20 mg",2,2025-01-01,2025-03-26,"Y",1,1,"Injection Site Reaction","INJECTION SITE REACTION","MODERATE","N","RECOVERED","2025-04-23","2025-04-25",2025-04-23,2025-04-25,113,115,"FOLLOW-UP","Y","AE","AESEQ",1
"ABC101","ABC-049","049","Placebo",0,"Placebo",0,2025-01-01,2025-03-26,"Y",1,1,"Dizziness","DIZZINESS","MILD","N","RECOVERED","2025-02-16","2025-02-25",2025-02-16,2025-02-25,47,56,"TREATMENT","Y","AE","AESEQ",1
"ABC101","ABC-050","050","Placebo",0,"Placebo",0,2025-01-01,2025-03-26,"Y",1,1,"Headache","HEADACHE","MODERATE","N","RECOVERED","2025-03-14","2025-03-19",2025-03-14,2025-03-19,73,78,"TREATMENT","Y","AE","AESEQ",1
"ABC101","ABC-050","050","Placebo",0,"Placebo",0,2025-01-01,2025-03-26,"Y",2,2,"Fatigue","FATIGUE","MODERATE","N","RECOVERED","2025-02-09","2025-02-13",2025-02-09,2025-02-13,40,44,"TREATMENT","Y","AE","AESEQ",2
"ABC101","ABC-051","051","Drug 10 mg",1,"Drug 10 mg",1,2025-01-01,2025-03-26,"Y",1,1,"Diarrhea","DIARRHEA","MILD","N","RECOVERING","2025-03-21","2025-03-28",2025-03-21,2025-03-28,80,87,"TREATMENT","Y","AE","AESEQ",1
"ABC101","ABC-052","052","Drug 20 mg",2,"Drug 20 mg",2,2025-01-01,2025-03-26,"Y",1,1,"Nausea","NAUSEA","MILD","N","RECOVERED","2025-04-14","2025-04-27",2025-04-14,2025-04-27,104,117,"FOLLOW-UP","Y","AE","AESEQ",1
"ABC101","ABC-053","053","Placebo",0,"Placebo",0,2025-01-01,2025-03-26,"Y",1,1,"Abdominal Pain","ABDOMINAL PAIN","MILD","N","RECOVERED","2025-06-06","2025-06-13",2025-06-06,2025-06-13,157,164,"FOLLOW-UP","","AE","AESEQ",1
"ABC101","ABC-053","053","Placebo",0,"Placebo",0,2025-01-01,2025-03-26,"Y",2,2,"Fatigue","FATIGUE","MODERATE","N","RECOVERED","2025-02-01","2025-02-06",2025-02-01,2025-02-06,32,37,"TREATMENT","Y","AE","AESEQ",2
"ABC101","ABC-054","054","Drug 10 mg",1,"Drug 10 mg",1,2025-01-01,2025-03-26,"Y",1,1,"Diarrhea","DIARRHEA","MODERATE","N","RECOVERED","2025-04-06","2025-04-18",2025-04-06,2025-04-18,96,108,"FOLLOW-UP","Y","AE","AESEQ",1
"ABC101","ABC-057","057","Drug 20 mg",2,"Drug 20 mg",2,2025-01-01,2025-03-26,"Y",1,1,"Injection Site Reaction","INJECTION SITE REACTION","MILD","N","RECOVERED","2025-03-03","2025-03-09",2025-03-03,2025-03-09,62,68,"TREATMENT","Y","AE","AESEQ",1
"ABC101","ABC-059","059","Drug 20 mg",2,"Drug 20 mg",2,2025-01-01,2025-03-26,"Y",1,1,"Dizziness","DIZZINESS","MODERATE","N","RECOVERED","2025-06-04","2025-06-09",2025-06-04,2025-06-09,155,160,"FOLLOW-UP","","AE","AESEQ",1
"ABC101","ABC-059","059","Drug 20 mg",2,"Drug 20 mg",2,2025-01-01,2025-03-26,"Y",2,2,"Dizziness","DIZZINESS","MILD","N","RECOVERING","2025-01-11","2025-01-19",2025-01-11,2025-01-19,11,19,"TREATMENT","Y","AE","AESEQ",2
"ABC101","ABC-060","060","Drug 20 mg",2,"Drug 20 mg",2,2025-01-01,2025-03-26,"Y",1,1,"Fatigue","FATIGUE","MODERATE","N","NOT RECOVERED","2025-05-09","2025-05-22",2025-05-09,2025-05-22,129,142,"FOLLOW-UP","","AE","AESEQ",1
"ABC101","ABC-060","060","Drug 20 mg",2,"Drug 20 mg",2,2025-01-01,2025-03-26,"Y",2,2,"Injection Site Reaction","INJECTION SITE REACTION","MILD","N","RECOVERED","2025-05-14","2025-05-15",2025-05-14,2025-05-15,134,135,"FOLLOW-UP","","AE","AESEQ",2
"ABC101","ABC-060","060","Drug 20 mg",2,"Drug 20 mg",2,2025-01-01,2025-03-26,"Y",3,3,"Fatigue","FATIGUE","MILD","N","RECOVERED","2025-02-02","2025-02-16",2025-02-02,2025-02-16,33,47,"TREATMENT","Y","AE","AESEQ",3
"ABC101","ABC-062","062","Drug 10 mg",1,"Drug 10 mg",1,2025-01-01,2025-03-26,"Y",1,1,"Nausea","NAUSEA","MILD","N","NOT RECOVERED","2025-05-20","2025-05-21",2025-05-20,2025-05-21,140,141,"FOLLOW-UP","","AE","AESEQ",1
"ABC101","ABC-063","063","Drug 20 mg",2,"Drug 20 mg",2,2025-01-01,2025-03-26,"Y",1,1,"Fatigue","FATIGUE","MILD","N","RECOVERING","2025-02-23","2025-03-08",2025-02-23,2025-03-08,54,67,"TREATMENT","Y","AE","AESEQ",1
"ABC101","ABC-064","064","Drug 10 mg",1,"Drug 10 mg",1,2025-01-01,2025-03-26,"Y",1,1,"Headache","HEADACHE","MILD","N","RECOVERING","2025-04-29","2025-05-07",2025-04-29,2025-05-07,119,127,"FOLLOW-UP","","AE","AESEQ",1
"ABC101","ABC-064","064","Drug 10 mg",1,"Drug 10 mg",1,2025-01-01,2025-03-26,"Y",2,2,"Nausea","NAUSEA","MILD","N","RECOVERED","2025-05-20","2025-05-25",2025-05-20,2025-05-25,140,145,"FOLLOW-UP","","AE","AESEQ",2
"ABC101","ABC-066","066","Drug 10 mg",1,"Drug 10 mg",1,2025-01-01,2025-03-26,"Y",1,1,"Fatigue","FATIGUE","MILD","N","RECOVERED","2025-01-25","2025-01-30",2025-01-25,2025-01-30,25,30,"TREATMENT","Y","AE","AESEQ",1
"ABC101","ABC-066","066","Drug 10 mg",1,"Drug 10 mg",1,2025-01-01,2025-03-26,"Y",2,2,"Upper Respiratory Infection","UPPER RESPIRATORY INFECTION","MILD","N","RECOVERED","2025-01-10","2025-01-15",2025-01-10,2025-01-15,10,15,"TREATMENT","Y","AE","AESEQ",2
"ABC101","ABC-067","067","Drug 20 mg",2,"Drug 20 mg",2,2025-01-01,2025-03-26,"Y",1,1,"Upper Respiratory Infection","UPPER RESPIRATORY INFECTION","MILD","N","NOT RECOVERED","2025-04-29","2025-05-04",2025-04-29,2025-05-04,119,124,"FOLLOW-UP","","AE","AESEQ",1
"ABC101","ABC-068","068","Drug 10 mg",1,"Drug 10 mg",1,2025-01-01,2025-03-26,"Y",1,1,"Fatigue","FATIGUE","MILD","N","RECOVERED","2025-02-27","2025-03-09",2025-02-27,2025-03-09,58,68,"TREATMENT","Y","AE","AESEQ",1
"ABC101","ABC-068","068","Drug 10 mg",1,"Drug 10 mg",1,2025-01-01,2025-03-26,"Y",2,2,"Injection Site Reaction","INJECTION SITE REACTION","SEVERE","N","RECOVERED","2025-02-21","2025-02-24",2025-02-21,2025-02-24,52,55,"TREATMENT","Y","AE","AESEQ",2
"ABC101","ABC-068","068","Drug 10 mg",1,"Drug 10 mg",1,2025-01-01,2025-03-26,"Y",3,3,"Upper Respiratory Infection","UPPER RESPIRATORY INFECTION","MODERATE","N","RECOVERED","2025-02-22","2025-03-03",2025-02-22,2025-03-03,53,62,"TREATMENT","Y","AE","AESEQ",3
"ABC101","ABC-069","069","Drug 10 mg",1,"Drug 10 mg",1,2025-01-01,2025-03-26,"Y",1,1,"Fatigue","FATIGUE","MILD","N","RECOVERED","2025-03-05","2025-03-18",2025-03-05,2025-03-18,64,77,"TREATMENT","Y","AE","AESEQ",1
"ABC101","ABC-069","069","Drug 10 mg",1,"Drug 10 mg",1,2025-01-01,2025-03-26,"Y",2,2,"Abdominal Pain","ABDOMINAL PAIN","MILD","N","RECOVERED","2025-05-31","2025-06-02",2025-05-31,2025-06-02,151,153,"FOLLOW-UP","","AE","AESEQ",2
"ABC101","ABC-070","070","Drug 20 mg",2,"Drug 20 mg",2,2025-01-01,2025-03-26,"Y",1,1,"Abdominal Pain","ABDOMINAL PAIN","MODERATE","N","RECOVERED","2025-02-11","2025-02-20",2025-02-11,2025-02-20,42,51,"TREATMENT","Y","AE","AESEQ",1
"ABC101","ABC-070","070","Drug 20 mg",2,"Drug 20 mg",2,2025-01-01,2025-03-26,"Y",2,2,"Dizziness","DIZZINESS","MILD","N","RECOVERED","2025-06-06","2025-06-07",2025-06-06,2025-06-07,157,158,"FOLLOW-UP","","AE","AESEQ",2
"ABC101","ABC-073","073","Drug 20 mg",2,"Drug 20 mg",2,2025-01-01,2025-03-26,"Y",1,1,"Diarrhea","DIARRHEA","MODERATE","N","RECOVERING","2025-05-20","2025-05-23",2025-05-20,2025-05-23,140,143,"FOLLOW-UP","","AE","AESEQ",1
"ABC101","ABC-074","074","Placebo",0,"Placebo",0,2025-01-01,2025-03-26,"Y",1,1,"Diarrhea","DIARRHEA","MILD","N","RECOVERED","2025-02-03","2025-02-06",2025-02-03,2025-02-06,34,37,"TREATMENT","Y","AE","AESEQ",1
"ABC101","ABC-074","074","Placebo",0,"Placebo",0,2025-01-01,2025-03-26,"Y",2,2,"Diarrhea","DIARRHEA","MODERATE","N","RECOVERED","2025-05-10","2025-05-20",2025-05-10,2025-05-20,130,140,"FOLLOW-UP","","AE","AESEQ",2
"ABC101","ABC-074","074","Placebo",0,"Placebo",0,2025-01-01,2025-03-26,"Y",3,3,"Abdominal Pain","ABDOMINAL PAIN","MODERATE","N","RECOVERED","2025-03-24","2025-04-04",2025-03-24,2025-04-04,83,94,"TREATMENT","Y","AE","AESEQ",3
"ABC101","ABC-074","074","Placebo",0,"Placebo",0,2025-01-01,2025-03-26,"Y",4,4,"Headache","HEADACHE","MILD","N","RECOVERING","2025-04-25","2025-05-06",2025-04-25,2025-05-06,115,126,"FOLLOW-UP","Y","AE","AESEQ",4
"ABC101","ABC-075","075","Drug 20 mg",2,"Drug 20 mg",2,2025-01-01,2025-03-26,"Y",1,1,"Nausea","NAUSEA","MODERATE","N","RECOVERED","2025-01-25","2025-01-30",2025-01-25,2025-01-30,25,30,"TREATMENT","Y","AE","AESEQ",1
"ABC101","ABC-077","077","Placebo",0,"Placebo",0,2025-01-01,2025-03-26,"Y",1,1,"Dizziness","DIZZINESS","MILD","N","RECOVERED","2025-04-19","2025-04-20",2025-04-19,2025-04-20,109,110,"FOLLOW-UP","Y","AE","AESEQ",1
"ABC101","ABC-077","077","Placebo",0,"Placebo",0,2025-01-01,2025-03-26,"Y",2,2,"Injection Site Reaction","INJECTION SITE REACTION","MILD","Y","RECOVERED","2025-01-14","2025-01-19",2025-01-14,2025-01-19,14,19,"TREATMENT","Y","AE","AESEQ",2
"ABC101","ABC-078","078","Placebo",0,"Placebo",0,2025-01-01,2025-03-26,"Y",1,1,"Dizziness","DIZZINESS","MODERATE","N","RECOVERED","2025-03-28","2025-04-09",2025-03-28,2025-04-09,87,99,"FOLLOW-UP","Y","AE","AESEQ",1
"ABC101","ABC-078","078","Placebo",0,"Placebo",0,2025-01-01,2025-03-26,"Y",2,2,"Dizziness","DIZZINESS","MILD","N","RECOVERING","2025-06-30","2025-07-08",2025-06-30,2025-07-08,181,189,"FOLLOW-UP","","AE","AESEQ",2
"ABC101","ABC-078","078","Placebo",0,"Placebo",0,2025-01-01,2025-03-26,"Y",3,3,"Injection Site Reaction","INJECTION SITE REACTION","MODERATE","N","RECOVERED","2025-02-23","2025-02-28",2025-02-23,2025-02-28,54,59,"TREATMENT","Y","AE","AESEQ",3
"ABC101","ABC-081","081","Drug 10 mg",1,"Drug 10 mg",1,2025-01-01,2025-03-26,"Y",1,1,"Injection Site Reaction","INJECTION SITE REACTION","MILD","N","RECOVERED","2025-05-10","2025-05-17",2025-05-10,2025-05-17,130,137,"FOLLOW-UP","","AE","AESEQ",1
"ABC101","ABC-082","082","Drug 20 mg",2,"Drug 20 mg",2,2025-01-01,2025-03-26,"Y",1,1,"Fatigue","FATIGUE","MILD","N","RECOVERED","2025-05-30","2025-06-12",2025-05-30,2025-06-12,150,163,"FOLLOW-UP","","AE","AESEQ",1
"ABC101","ABC-083","083","Drug 20 mg",2,"Drug 20 mg",2,2025-01-01,2025-03-26,"Y",1,1,"Diarrhea","DIARRHEA","MILD","N","RECOVERED","2025-02-27","2025-03-08",2025-02-27,2025-03-08,58,67,"TREATMENT","Y","AE","AESEQ",1
"ABC101","ABC-083","083","Drug 20 mg",2,"Drug 20 mg",2,2025-01-01,2025-03-26,"Y",2,2,"Fatigue","FATIGUE","MILD","N","RECOVERED","2025-01-11","2025-01-14",2025-01-11,2025-01-14,11,14,"TREATMENT","Y","AE","AESEQ",2
"ABC101","ABC-085","085","Drug 10 mg",1,"Drug 10 mg",1,2025-01-01,2025-03-26,"Y",1,1,"Diarrhea","DIARRHEA","SEVERE","Y","RECOVERED","2025-01-29","2025-02-06",2025-01-29,2025-02-06,29,37,"TREATMENT","Y","AE","AESEQ",1
"ABC101","ABC-087","087","Drug 20 mg",2,"Drug 20 mg",2,2025-01-01,2025-03-26,"Y",1,1,"Upper Respiratory Infection","UPPER RESPIRATORY INFECTION","MODERATE","N","RECOVERED","2025-06-19","2025-06-30",2025-06-19,2025-06-30,170,181,"FOLLOW-UP","","AE","AESEQ",1
"ABC101","ABC-088","088","Drug 20 mg",2,"Drug 20 mg",2,2025-01-01,2025-03-26,"Y",1,1,"Headache","HEADACHE","MILD","N","RECOVERED","2025-06-15","2025-06-27",2025-06-15,2025-06-27,166,178,"FOLLOW-UP","","AE","AESEQ",1
"ABC101","ABC-088","088","Drug 20 mg",2,"Drug 20 mg",2,2025-01-01,2025-03-26,"Y",2,2,"Abdominal Pain","ABDOMINAL PAIN","MILD","N","RECOVERED","2025-06-07","2025-06-14",2025-06-07,2025-06-14,158,165,"FOLLOW-UP","","AE","AESEQ",2
"ABC101","ABC-089","089","Drug 20 mg",2,"Drug 20 mg",2,2025-01-01,2025-03-26,"Y",1,1,"Dizziness","DIZZINESS","MILD","N","RECOVERED","2025-04-11","2025-04-12",2025-04-11,2025-04-12,101,102,"FOLLOW-UP","Y","AE","AESEQ",1
"ABC101","ABC-089","089","Drug 20 mg",2,"Drug 20 mg",2,2025-01-01,2025-03-26,"Y",2,2,"Dizziness","DIZZINESS","MILD","N","RECOVERING","2025-03-23","2025-03-31",2025-03-23,2025-03-31,82,90,"TREATMENT","Y","AE","AESEQ",2
"ABC101","ABC-089","089","Drug 20 mg",2,"Drug 20 mg",2,2025-01-01,2025-03-26,"Y",3,3,"Abdominal Pain","ABDOMINAL PAIN","MILD","N","RECOVERED","2025-02-01","2025-02-07",2025-02-01,2025-02-07,32,38,"TREATMENT","Y","AE","AESEQ",3
"ABC101","ABC-090","090","Drug 10 mg",1,"Drug 10 mg",1,2025-01-01,2025-03-26,"Y",1,1,"Headache","HEADACHE","MILD","N","RECOVERED","2025-04-24","2025-04-30",2025-04-24,2025-04-30,114,120,"FOLLOW-UP","Y","AE","AESEQ",1
"ABC101","ABC-090","090","Drug 10 mg",1,"Drug 10 mg",1,2025-01-01,2025-03-26,"Y",2,2,"Upper Respiratory Infection","UPPER RESPIRATORY INFECTION","MODERATE","N","RECOVERED","2025-06-16","2025-06-27",2025-06-16,2025-06-27,167,178,"FOLLOW-UP","","AE","AESEQ",2
"ABC101","ABC-090","090","Drug 10 mg",1,"Drug 10 mg",1,2025-01-01,2025-03-26,"Y",3,3,"Fatigue","FATIGUE","MODERATE","N","RECOVERED","2025-01-31","2025-02-12",2025-01-31,2025-02-12,31,43,"TREATMENT","Y","AE","AESEQ",3
"ABC101","ABC-090","090","Drug 10 mg",1,"Drug 10 mg",1,2025-01-01,2025-03-26,"Y",4,4,"Fatigue","FATIGUE","MILD","N","RECOVERING","2025-01-23","2025-01-30",2025-01-23,2025-01-30,23,30,"TREATMENT","Y","AE","AESEQ",4
"ABC101","ABC-091","091","Placebo",0,"Placebo",0,2025-01-01,2025-03-26,"Y",1,1,"Nausea","NAUSEA","MILD","N","RECOVERED","2025-01-03","2025-01-05",2025-01-03,2025-01-05,3,5,"TREATMENT","Y","AE","AESEQ",1
"ABC101","ABC-092","092","Drug 20 mg",2,"Drug 20 mg",2,2025-01-01,2025-03-26,"Y",1,1,"Injection Site Reaction","INJECTION SITE REACTION","MILD","N","RECOVERED","2025-04-15","2025-04-24",2025-04-15,2025-04-24,105,114,"FOLLOW-UP","Y","AE","AESEQ",1
"ABC101","ABC-092","092","Drug 20 mg",2,"Drug 20 mg",2,2025-01-01,2025-03-26,"Y",2,2,"Upper Respiratory Infection","UPPER RESPIRATORY INFECTION","MILD","N","RECOVERED","2025-06-18","2025-06-29",2025-06-18,2025-06-29,169,180,"FOLLOW-UP","","AE","AESEQ",2
"ABC101","ABC-094","094","Drug 20 mg",2,"Drug 20 mg",2,2025-01-01,2025-03-26,"Y",1,1,"Dizziness","DIZZINESS","MODERATE","N","RECOVERED","2025-02-13","2025-02-23",2025-02-13,2025-02-23,44,54,"TREATMENT","Y","AE","AESEQ",1
"ABC101","ABC-095","095","Drug 20 mg",2,"Drug 20 mg",2,2025-01-01,2025-03-26,"Y",1,1,"Upper Respiratory Infection","UPPER RESPIRATORY INFECTION","MODERATE","N","RECOVERED","2025-01-29","2025-02-08",2025-01-29,2025-02-08,29,39,"TREATMENT","Y","AE","AESEQ",1
"ABC101","ABC-096","096","Drug 20 mg",2,"Drug 20 mg",2,2025-01-01,2025-03-26,"Y",1,1,"Diarrhea","DIARRHEA","MILD","N","NOT RECOVERED","2025-06-09","2025-06-15",2025-06-09,2025-06-15,160,166,"FOLLOW-UP","","AE","AESEQ",1
"ABC101","ABC-097","097","Drug 20 mg",2,"Drug 20 mg",2,2025-01-01,2025-03-26,"Y",1,1,"Injection Site Reaction","INJECTION SITE REACTION","MILD","N","NOT RECOVERED","2025-01-23","2025-02-02",2025-01-23,2025-02-02,23,33,"TREATMENT","Y","AE","AESEQ",1
"ABC101","ABC-097","097","Drug 20 mg",2,"Drug 20 mg",2,2025-01-01,2025-03-26,"Y",2,2,"Headache","HEADACHE","SEVERE","N","RECOVERED","2025-02-23","2025-03-08",2025-02-23,2025-03-08,54,67,"TREATMENT","Y","AE","AESEQ",2
"ABC101","ABC-099","099","Placebo",0,"Placebo",0,2025-01-01,2025-03-26,"Y",1,1,"Injection Site Reaction","INJECTION SITE REACTION","MILD","N","RECOVERED","2025-02-06","2025-02-11",2025-02-06,2025-02-11,37,42,"TREATMENT","Y","AE","AESEQ",1
"ABC101","ABC-099","099","Placebo",0,"Placebo",0,2025-01-01,2025-03-26,"Y",2,2,"Nausea","NAUSEA","MILD","N","RECOVERED","2025-03-06","2025-03-18",2025-03-06,2025-03-18,65,77,"TREATMENT","Y","AE","AESEQ",2
"ABC101","ABC-100","100","Placebo",0,"Placebo",0,2025-01-01,2025-03-26,"Y",1,1,"Upper Respiratory Infection","UPPER RESPIRATORY INFECTION","MODERATE","N","RECOVERED","2025-05-09","2025-05-10",2025-05-09,2025-05-10,129,130,"FOLLOW-UP","","AE","AESEQ",1
"ABC101","ABC-100","100","Placebo",0,"Placebo",0,2025-01-01,2025-03-26,"Y",2,2,"Injection Site Reaction","INJECTION SITE REACTION","MILD","Y","RECOVERED","2025-06-22","2025-07-03",2025-06-22,2025-07-03,173,184,"FOLLOW-UP","","AE","AESEQ",2
"ABC101","ABC-101","101","Placebo",0,"Placebo",0,2025-01-01,2025-03-26,"Y",1,1,"Dizziness","DIZZINESS","MODERATE","N","RECOVERED","2025-01-07","2025-01-12",2025-01-07,2025-01-12,7,12,"TREATMENT","Y","AE","AESEQ",1
"ABC101","ABC-102","102","Placebo",0,"Placebo",0,2025-01-01,2025-03-26,"Y",1,1,"Injection Site Reaction","INJECTION SITE REACTION","MILD","N","RECOVERING","2025-03-05","2025-03-10",2025-03-05,2025-03-10,64,69,"TREATMENT","Y","AE","AESEQ",1
"ABC101","ABC-102","102","Placebo",0,"Placebo",0,2025-01-01,2025-03-26,"Y",2,2,"Injection Site Reaction","INJECTION SITE REACTION","MILD","N","RECOVERED","2025-02-23","2025-03-05",2025-02-23,2025-03-05,54,64,"TREATMENT","Y","AE","AESEQ",2
"ABC101","ABC-103","103","Drug 10 mg",1,"Drug 10 mg",1,2025-01-01,2025-03-26,"Y",1,1,"Diarrhea","DIARRHEA","MODERATE","N","NOT RECOVERED","2025-01-06","2025-01-18",2025-01-06,2025-01-18,6,18,"TREATMENT","Y","AE","AESEQ",1
"ABC101","ABC-105","105","Drug 10 mg",1,"Drug 10 mg",1,2025-01-01,2025-03-26,"Y",1,1,"Headache","HEADACHE","MILD","N","RECOVERED","2025-03-31","2025-04-10",2025-03-31,2025-04-10,90,100,"FOLLOW-UP","Y","AE","AESEQ",1
"ABC101","ABC-106","106","Drug 10 mg",1,"Drug 10 mg",1,2025-01-01,2025-03-26,"Y",1,1,"Nausea","NAUSEA","MILD","N","RECOVERED","2025-01-17","2025-01-22",2025-01-17,2025-01-22,17,22,"TREATMENT","Y","AE","AESEQ",1
"ABC101","ABC-107","107","Drug 20 mg",2,"Drug 20 mg",2,2025-01-01,2025-03-26,"Y",1,1,"Upper Respiratory Infection","UPPER RESPIRATORY INFECTION","MODERATE","N","RECOVERING","2025-06-24","2025-07-08",2025-06-24,2025-07-08,175,189,"FOLLOW-UP","","AE","AESEQ",1
"ABC101","ABC-107","107","Drug 20 mg",2,"Drug 20 mg",2,2025-01-01,2025-03-26,"Y",2,2,"Diarrhea","DIARRHEA","MILD","N","RECOVERED","2025-05-22","2025-06-03",2025-05-22,2025-06-03,142,154,"FOLLOW-UP","","AE","AESEQ",2
"ABC101","ABC-108","108","Drug 20 mg",2,"Drug 20 mg",2,2025-01-01,2025-03-26,"Y",1,1,"Fatigue","FATIGUE","MILD","N","RECOVERED","2025-02-07","2025-02-09",2025-02-07,2025-02-09,38,40,"TREATMENT","Y","AE","AESEQ",1
"ABC101","ABC-109","109","Placebo",0,"Placebo",0,2025-01-01,2025-03-26,"Y",1,1,"Headache","HEADACHE","MILD","N","RECOVERED","2025-05-02","2025-05-05",2025-05-02,2025-05-05,122,125,"FOLLOW-UP","","AE","AESEQ",1
"ABC101","ABC-109","109","Placebo",0,"Placebo",0,2025-01-01,2025-03-26,"Y",2,2,"Abdominal Pain","ABDOMINAL PAIN","MILD","N","RECOVERED","2025-01-18","2025-01-23",2025-01-18,2025-01-23,18,23,"TREATMENT","Y","AE","AESEQ",2
"ABC101","ABC-111","111","Drug 10 mg",1,"Drug 10 mg",1,2025-01-01,2025-03-26,"Y",1,1,"Abdominal Pain","ABDOMINAL PAIN","MILD","N","RECOVERED","2025-05-30","2025-06-04",2025-05-30,2025-06-04,150,155,"FOLLOW-UP","","AE","AESEQ",1
"ABC101","ABC-111","111","Drug 10 mg",1,"Drug 10 mg",1,2025-01-01,2025-03-26,"Y",2,2,"Dizziness","DIZZINESS","MODERATE","N","RECOVERED","2025-05-22","2025-05-28",2025-05-22,2025-05-28,142,148,"FOLLOW-UP","","AE","AESEQ",2
"ABC101","ABC-112","112","Placebo",0,"Placebo",0,2025-01-01,2025-03-26,"Y",1,1,"Dizziness","DIZZINESS","MILD","N","RECOVERED","2025-06-07","2025-06-09",2025-06-07,2025-06-09,158,160,"FOLLOW-UP","","AE","AESEQ",1
"ABC101","ABC-117","117","Drug 20 mg",2,"Drug 20 mg",2,2025-01-01,2025-03-26,"Y",1,1,"Nausea","NAUSEA","MILD","N","RECOVERING","2025-05-07","2025-05-13",2025-05-07,2025-05-13,127,133,"FOLLOW-UP","","AE","AESEQ",1
"ABC101","ABC-117","117","Drug 20 mg",2,"Drug 20 mg",2,2025-01-01,2025-03-26,"Y",2,2,"Injection Site Reaction","INJECTION SITE REACTION","MILD","N","RECOVERED","2025-06-30","2025-07-11",2025-06-30,2025-07-11,181,192,"FOLLOW-UP","","AE","AESEQ",2
"ABC101","ABC-117","117","Drug 20 mg",2,"Drug 20 mg",2,2025-01-01,2025-03-26,"Y",3,3,"Headache","HEADACHE","SEVERE","N","RECOVERING","2025-04-16","2025-04-26",2025-04-16,2025-04-26,106,116,"FOLLOW-UP","Y","AE","AESEQ",3
"ABC101","ABC-118","118","Drug 10 mg",1,"Drug 10 mg",1,2025-01-01,2025-03-26,"Y",1,1,"Fatigue","FATIGUE","MILD","N","RECOVERED","2025-06-20","2025-06-23",2025-06-20,2025-06-23,171,174,"FOLLOW-UP","","AE","AESEQ",1
"ABC101","ABC-118","118","Drug 10 mg",1,"Drug 10 mg",1,2025-01-01,2025-03-26,"Y",2,2,"Upper Respiratory Infection","UPPER RESPIRATORY INFECTION","MILD","N","RECOVERING","2025-01-19","2025-01-21",2025-01-19,2025-01-21,19,21,"TREATMENT","Y","AE","AESEQ",2
"ABC101","ABC-119","119","Placebo",0,"Placebo",0,2025-01-01,2025-03-26,"Y",1,1,"Headache","HEADACHE","MILD","N","RECOVERED","2025-01-01","2025-01-10",2025-01-01,2025-01-10,1,10,"TREATMENT","Y","AE","AESEQ",1
"ABC101","ABC-119","119","Placebo",0,"Placebo",0,2025-01-01,2025-03-26,"Y",2,2,"Nausea","NAUSEA","MILD","N","RECOVERED","2025-05-17","2025-05-18",2025-05-17,2025-05-18,137,138,"FOLLOW-UP","","AE","AESEQ",2
"ABC101","ABC-120","120","Drug 20 mg",2,"Drug 20 mg",2,2025-01-01,2025-03-26,"Y",1,1,"Fatigue","FATIGUE","MILD","N","RECOVERED","2025-06-28","2025-07-07",2025-06-28,2025-07-07,179,188,"FOLLOW-UP","","AE","AESEQ",1
"ABC101","ABC-120","120","Drug 20 mg",2,"Drug 20 mg",2,2025-01-01,2025-03-26,"Y",2,2,"Upper Respiratory Infection","UPPER RESPIRATORY INFECTION","MODERATE","N","RECOVERED","2025-06-21","2025-06-26",2025-06-21,2025-06-26,172,177,"FOLLOW-UP","","AE","AESEQ",2
"ABC101","ABC-120","120","Drug 20 mg",2,"Drug 20 mg",2,2025-01-01,2025-03-26,"Y",3,3,"Headache","HEADACHE","MILD","N","RECOVERED","2025-05-23","2025-05-24",2025-05-23,2025-05-24,143,144,"FOLLOW-UP","","AE","AESEQ",3
"ABC101","ABC-121","121","Drug 10 mg",1,"Drug 10 mg",1,2025-01-01,2025-03-26,"Y",1,1,"Abdominal Pain","ABDOMINAL PAIN","MILD","N","RECOVERING","2025-02-10","2025-02-12",2025-02-10,2025-02-12,41,43,"TREATMENT","Y","AE","AESEQ",1
"ABC101","ABC-121","121","Drug 10 mg",1,"Drug 10 mg",1,2025-01-01,2025-03-26,"Y",2,2,"Abdominal Pain","ABDOMINAL PAIN","MILD","N","RECOVERED","2025-05-22","2025-05-25",2025-05-22,2025-05-25,142,145,"FOLLOW-UP","","AE","AESEQ",2
"ABC101","ABC-121","121","Drug 10 mg",1,"Drug 10 mg",1,2025-01-01,2025-03-26,"Y",3,3,"Headache","HEADACHE","MILD","N","RECOVERED","2025-01-05","2025-01-11",2025-01-05,2025-01-11,5,11,"TREATMENT","Y","AE","AESEQ",3
"ABC101","ABC-121","121","Drug 10 mg",1,"Drug 10 mg",1,2025-01-01,2025-03-26,"Y",4,4,"Fatigue","FATIGUE","MILD","N","RECOVERED","2025-06-17","2025-06-25",2025-06-17,2025-06-25,168,176,"FOLLOW-UP","","AE","AESEQ",4
"ABC101","ABC-121","121","Drug 10 mg",1,"Drug 10 mg",1,2025-01-01,2025-03-26,"Y",5,5,"Dizziness","DIZZINESS","MILD","N","RECOVERING","2025-03-24","2025-03-31",2025-03-24,2025-03-31,83,90,"TREATMENT","Y","AE","AESEQ",5
"ABC101","ABC-122","122","Drug 10 mg",1,"Drug 10 mg",1,2025-01-01,2025-03-26,"Y",1,1,"Nausea","NAUSEA","MODERATE","N","RECOVERED","2025-02-19","2025-02-21",2025-02-19,2025-02-21,50,52,"TREATMENT","Y","AE","AESEQ",1
"ABC101","ABC-124","124","Drug 10 mg",1,"Drug 10 mg",1,2025-01-01,2025-03-26,"Y",1,1,"Dizziness","DIZZINESS","MILD","N","RECOVERED","2025-06-29","2025-07-01",2025-06-29,2025-07-01,180,182,"FOLLOW-UP","","AE","AESEQ",1
"ABC101","ABC-125","125","Drug 10 mg",1,"Drug 10 mg",1,2025-01-01,2025-03-26,"Y",1,1,"Upper Respiratory Infection","UPPER RESPIRATORY INFECTION","MILD","N","RECOVERED","2025-04-19","2025-04-22",2025-04-19,2025-04-22,109,112,"FOLLOW-UP","Y","AE","AESEQ",1
"ABC101","ABC-125","125","Drug 10 mg",1,"Drug 10 mg",1,2025-01-01,2025-03-26,"Y",2,2,"Injection Site Reaction","INJECTION SITE REACTION","MILD","N","RECOVERING","2025-06-28","2025-07-12",2025-06-28,2025-07-12,179,193,"FOLLOW-UP","","AE","AESEQ",2
"ABC101","ABC-125","125","Drug 10 mg",1,"Drug 10 mg",1,2025-01-01,2025-03-26,"Y",3,3,"Nausea","NAUSEA","MILD","N","RECOVERED","2025-01-16","2025-01-19",2025-01-16,2025-01-19,16,19,"TREATMENT","Y","AE","AESEQ",3
"ABC101","ABC-125","125","Drug 10 mg",1,"Drug 10 mg",1,2025-01-01,2025-03-26,"Y",4,4,"Headache","HEADACHE","MILD","N","RECOVERED","2025-04-12","2025-04-21",2025-04-12,2025-04-21,102,111,"FOLLOW-UP","Y","AE","AESEQ",4
"ABC101","ABC-126","126","Placebo",0,"Placebo",0,2025-01-01,2025-03-26,"Y",1,1,"Diarrhea","DIARRHEA","MILD","N","RECOVERING","2025-05-08","2025-05-14",2025-05-08,2025-05-14,128,134,"FOLLOW-UP","","AE","AESEQ",1
"ABC101","ABC-126","126","Placebo",0,"Placebo",0,2025-01-01,2025-03-26,"Y",2,2,"Fatigue","FATIGUE","MILD","N","RECOVERED","2025-05-05","2025-05-11",2025-05-05,2025-05-11,125,131,"FOLLOW-UP","","AE","AESEQ",2
"ABC101","ABC-126","126","Placebo",0,"Placebo",0,2025-01-01,2025-03-26,"Y",3,3,"Dizziness","DIZZINESS","MODERATE","N","RECOVERED","2025-06-27","2025-07-06",2025-06-27,2025-07-06,178,187,"FOLLOW-UP","","AE","AESEQ",3
"ABC101","ABC-126","126","Placebo",0,"Placebo",0,2025-01-01,2025-03-26,"Y",4,4,"Injection Site Reaction","INJECTION SITE REACTION","SEVERE","N","RECOVERED","2025-04-04","2025-04-10",2025-04-04,2025-04-10,94,100,"FOLLOW-UP","Y","AE","AESEQ",4
"ABC101","ABC-128","128","Drug 20 mg",2,"Drug 20 mg",2,2025-01-01,2025-03-26,"Y",1,1,"Dizziness","DIZZINESS","MILD","N","RECOVERED","2025-01-24","2025-01-27",2025-01-24,2025-01-27,24,27,"TREATMENT","Y","AE","AESEQ",1
"ABC101","ABC-129","129","Placebo",0,"Placebo",0,2025-01-01,2025-03-26,"Y",1,1,"Fatigue","FATIGUE","MILD","N","RECOVERED","2025-03-06","2025-03-09",2025-03-06,2025-03-09,65,68,"TREATMENT","Y","AE","AESEQ",1
"ABC101","ABC-130","130","Placebo",0,"Placebo",0,2025-01-01,2025-03-26,"Y",1,1,"Dizziness","DIZZINESS","MILD","N","RECOVERING","2025-04-24","2025-05-07",2025-04-24,2025-05-07,114,127,"FOLLOW-UP","Y","AE","AESEQ",1
"ABC101","ABC-132","132","Placebo",0,"Placebo",0,2025-01-01,2025-03-26,"Y",1,1,"Abdominal Pain","ABDOMINAL PAIN","MODERATE","N","RECOVERING","2025-06-28","2025-07-08",2025-06-28,2025-07-08,179,189,"FOLLOW-UP","","AE","AESEQ",1
"ABC101","ABC-132","132","Placebo",0,"Placebo",0,2025-01-01,2025-03-26,"Y",2,2,"Upper Respiratory Infection","UPPER RESPIRATORY INFECTION","MILD","N","RECOVERED","2025-04-14","2025-04-19",2025-04-14,2025-04-19,104,109,"FOLLOW-UP","Y","AE","AESEQ",2
"ABC101","ABC-132","132","Placebo",0,"Placebo",0,2025-01-01,2025-03-26,"Y",3,3,"Dizziness","DIZZINESS","MILD","N","RECOVERED","2025-06-19","2025-06-20",2025-06-19,2025-06-20,170,171,"FOLLOW-UP","","AE","AESEQ",3
"ABC101","ABC-133","133","Drug 10 mg",1,"Drug 10 mg",1,2025-01-01,2025-03-26,"Y",1,1,"Dizziness","DIZZINESS","MILD","N","RECOVERED","2025-05-18","2025-05-19",2025-05-18,2025-05-19,138,139,"FOLLOW-UP","","AE","AESEQ",1
"ABC101","ABC-133","133","Drug 10 mg",1,"Drug 10 mg",1,2025-01-01,2025-03-26,"Y",2,2,"Diarrhea","DIARRHEA","MODERATE","N","RECOVERING","2025-02-01","2025-02-05",2025-02-01,2025-02-05,32,36,"TREATMENT","Y","AE","AESEQ",2
"ABC101","ABC-133","133","Drug 10 mg",1,"Drug 10 mg",1,2025-01-01,2025-03-26,"Y",3,3,"Abdominal Pain","ABDOMINAL PAIN","MILD","N","RECOVERING","2025-02-02","2025-02-15",2025-02-02,2025-02-15,33,46,"TREATMENT","Y","AE","AESEQ",3
"ABC101","ABC-134","134","Drug 20 mg",2,"Drug 20 mg",2,2025-01-01,2025-03-26,"Y",1,1,"Abdominal Pain","ABDOMINAL PAIN","MILD","N","RECOVERED","2025-06-05","2025-06-11",2025-06-05,2025-06-11,156,162,"FOLLOW-UP","","AE","AESEQ",1
"ABC101","ABC-135","135","Drug 20 mg",2,"Drug 20 mg",2,2025-01-01,2025-03-26,"Y",1,1,"Abdominal Pain","ABDOMINAL PAIN","MILD","N","RECOVERING","2025-01-01","2025-01-15",2025-01-01,2025-01-15,1,15,"TREATMENT","Y","AE","AESEQ",1
"ABC101","ABC-135","135","Drug 20 mg",2,"Drug 20 mg",2,2025-01-01,2025-03-26,"Y",2,2,"Nausea","NAUSEA","MODERATE","N","RECOVERED","2025-04-15","2025-04-20",2025-04-15,2025-04-20,105,110,"FOLLOW-UP","Y","AE","AESEQ",2
"ABC101","ABC-137","137","Drug 10 mg",1,"Drug 10 mg",1,2025-01-01,2025-03-26,"Y",1,1,"Upper Respiratory Infection","UPPER RESPIRATORY INFECTION","MILD","N","RECOVERED","2025-05-12","2025-05-20",2025-05-12,2025-05-20,132,140,"FOLLOW-UP","","AE","AESEQ",1
"ABC101","ABC-138","138","Placebo",0,"Placebo",0,2025-01-01,2025-03-26,"Y",1,1,"Upper Respiratory Infection","UPPER RESPIRATORY INFECTION","MILD","N","RECOVERED","2025-03-10","2025-03-11",2025-03-10,2025-03-11,69,70,"TREATMENT","Y","AE","AESEQ",1
"ABC101","ABC-140","140","Drug 20 mg",2,"Drug 20 mg",2,2025-01-01,2025-03-26,"Y",1,1,"Upper Respiratory Infection","UPPER RESPIRATORY INFECTION","MODERATE","N","NOT RECOVERED","2025-04-18","2025-05-01",2025-04-18,2025-05-01,108,121,"FOLLOW-UP","Y","AE","AESEQ",1
"ABC101","ABC-140","140","Drug 20 mg",2,"Drug 20 mg",2,2025-01-01,2025-03-26,"Y",2,2,"Headache","HEADACHE","MODERATE","Y","RECOVERED","2025-01-09","2025-01-20",2025-01-09,2025-01-20,9,20,"TREATMENT","Y","AE","AESEQ",2
"ABC101","ABC-140","140","Drug 20 mg",2,"Drug 20 mg",2,2025-01-01,2025-03-26,"Y",3,3,"Fatigue","FATIGUE","MILD","Y","RECOVERING","2025-03-08","2025-03-10",2025-03-08,2025-03-10,67,69,"TREATMENT","Y","AE","AESEQ",3
"ABC101","ABC-141","141","Placebo",0,"Placebo",0,2025-01-01,2025-03-26,"Y",1,1,"Upper Respiratory Infection","UPPER RESPIRATORY INFECTION","MODERATE","N","RECOVERED","2025-03-31","2025-04-11",2025-03-31,2025-04-11,90,101,"FOLLOW-UP","Y","AE","AESEQ",1
"ABC101","ABC-142","142","Drug 20 mg",2,"Drug 20 mg",2,2025-01-01,2025-03-26,"Y",1,1,"Upper Respiratory Infection","UPPER RESPIRATORY INFECTION","MILD","N","RECOVERED","2025-03-01","2025-03-05",2025-03-01,2025-03-05,60,64,"TREATMENT","Y","AE","AESEQ",1
"ABC101","ABC-142","142","Drug 20 mg",2,"Drug 20 mg",2,2025-01-01,2025-03-26,"Y",2,2,"Headache","HEADACHE","MILD","N","RECOVERED","2025-06-01","2025-06-12",2025-06-01,2025-06-12,152,163,"FOLLOW-UP","","AE","AESEQ",2
"ABC101","ABC-142","142","Drug 20 mg",2,"Drug 20 mg",2,2025-01-01,2025-03-26,"Y",3,3,"Headache","HEADACHE","MILD","N","NOT RECOVERED","2025-01-14","2025-01-22",2025-01-14,2025-01-22,14,22,"TREATMENT","Y","AE","AESEQ",3
"ABC101","ABC-144","144","Placebo",0,"Placebo",0,2025-01-01,2025-03-26,"Y",1,1,"Dizziness","DIZZINESS","MODERATE","N","RECOVERED","2025-05-27","2025-06-04",2025-05-27,2025-06-04,147,155,"FOLLOW-UP","","AE","AESEQ",1
"ABC101","ABC-145","145","Drug 10 mg",1,"Drug 10 mg",1,2025-01-01,2025-03-26,"Y",1,1,"Upper Respiratory Infection","UPPER RESPIRATORY INFECTION","MILD","N","RECOVERING","2025-01-17","2025-01-21",2025-01-17,2025-01-21,17,21,"TREATMENT","Y","AE","AESEQ",1
"ABC101","ABC-145","145","Drug 10 mg",1,"Drug 10 mg",1,2025-01-01,2025-03-26,"Y",2,2,"Injection Site Reaction","INJECTION SITE REACTION","MILD","N","RECOVERED","2025-05-15","2025-05-20",2025-05-15,2025-05-20,135,140,"FOLLOW-UP","","AE","AESEQ",2
"ABC101","ABC-147","147","Placebo",0,"Placebo",0,2025-01-01,2025-03-26,"Y",1,1,"Diarrhea","DIARRHEA","MILD","N","NOT RECOVERED","2025-02-10","2025-02-19",2025-02-10,2025-02-19,41,50,"TREATMENT","Y","AE","AESEQ",1
"ABC101","ABC-149","149","Placebo",0,"Placebo",0,2025-01-01,2025-03-26,"Y",1,1,"Diarrhea","DIARRHEA","MILD","N","RECOVERED","2025-01-10","2025-01-17",2025-01-10,2025-01-17,10,17,"TREATMENT","Y","AE","AESEQ",1
"ABC101","ABC-149","149","Placebo",0,"Placebo",0,2025-01-01,2025-03-26,"Y",2,2,"Injection Site Reaction","INJECTION SITE REACTION","MODERATE","N","RECOVERED","2025-02-04","2025-02-12",2025-02-04,2025-02-12,35,43,"TREATMENT","Y","AE","AESEQ",2
"ABC101","ABC-149","149","Placebo",0,"Placebo",0,2025-01-01,2025-03-26,"Y",3,3,"Diarrhea","DIARRHEA","MILD","N","RECOVERED","2025-06-01","2025-06-02",2025-06-01,2025-06-02,152,153,"FOLLOW-UP","","AE","AESEQ",3
"ABC101","ABC-151","151","Placebo",0,"Placebo",0,2025-01-01,2025-03-26,"Y",1,1,"Diarrhea","DIARRHEA","MODERATE","N","RECOVERED","2025-01-17","2025-01-26",2025-01-17,2025-01-26,17,26,"TREATMENT","Y","AE","AESEQ",1
"ABC101","ABC-151","151","Placebo",0,"Placebo",0,2025-01-01,2025-03-26,"Y",2,2,"Dizziness","DIZZINESS","MILD","N","RECOVERED","2025-02-04","2025-02-06",2025-02-04,2025-02-06,35,37,"TREATMENT","Y","AE","AESEQ",2
"ABC101","ABC-152","152","Drug 20 mg",2,"Drug 20 mg",2,2025-01-01,2025-03-26,"Y",1,1,"Fatigue","FATIGUE","MILD","N","RECOVERING","2025-03-08","2025-03-10",2025-03-08,2025-03-10,67,69,"TREATMENT","Y","AE","AESEQ",1
"ABC101","ABC-152","152","Drug 20 mg",2,"Drug 20 mg",2,2025-01-01,2025-03-26,"Y",2,2,"Injection Site Reaction","INJECTION SITE REACTION","MILD","N","RECOVERED","2025-01-03","2025-01-07",2025-01-03,2025-01-07,3,7,"TREATMENT","Y","AE","AESEQ",2
"ABC101","ABC-152","152","Drug 20 mg",2,"Drug 20 mg",2,2025-01-01,2025-03-26,"Y",3,3,"Nausea","NAUSEA","MILD","N","RECOVERED","2025-04-13","2025-04-24",2025-04-13,2025-04-24,103,114,"FOLLOW-UP","Y","AE","AESEQ",3
"ABC101","ABC-153","153","Drug 20 mg",2,"Drug 20 mg",2,2025-01-01,2025-03-26,"Y",1,1,"Injection Site Reaction","INJECTION SITE REACTION","SEVERE","N","RECOVERED","2025-04-18","2025-04-21",2025-04-18,2025-04-21,108,111,"FOLLOW-UP","Y","AE","AESEQ",1
"ABC101","ABC-153","153","Drug 20 mg",2,"Drug 20 mg",2,2025-01-01,2025-03-26,"Y",2,2,"Nausea","NAUSEA","MILD","N","RECOVERED","2025-04-22","2025-04-23",2025-04-22,2025-04-23,112,113,"FOLLOW-UP","Y","AE","AESEQ",2
"ABC101","ABC-154","154","Placebo",0,"Placebo",0,2025-01-01,2025-03-26,"Y",1,1,"Headache","HEADACHE","MILD","N","NOT RECOVERED","2025-03-25","2025-04-04",2025-03-25,2025-04-04,84,94,"TREATMENT","Y","AE","AESEQ",1
"ABC101","ABC-154","154","Placebo",0,"Placebo",0,2025-01-01,2025-03-26,"Y",2,2,"Headache","HEADACHE","MILD","N","RECOVERED","2025-03-26","2025-04-05",2025-03-26,2025-04-05,85,95,"TREATMENT","Y","AE","AESEQ",2
"ABC101","ABC-155","155","Placebo",0,"Placebo",0,2025-01-01,2025-03-26,"Y",1,1,"Abdominal Pain","ABDOMINAL PAIN","MODERATE","N","RECOVERED","2025-06-21","2025-06-28",2025-06-21,2025-06-28,172,179,"FOLLOW-UP","","AE","AESEQ",1
"ABC101","ABC-155","155","Placebo",0,"Placebo",0,2025-01-01,2025-03-26,"Y",2,2,"Fatigue","FATIGUE","MILD","N","RECOVERED","2025-03-24","2025-03-31",2025-03-24,2025-03-31,83,90,"TREATMENT","Y","AE","AESEQ",2
"ABC101","ABC-155","155","Placebo",0,"Placebo",0,2025-01-01,2025-03-26,"Y",3,3,"Nausea","NAUSEA","MILD","N","RECOVERED","2025-02-26","2025-03-11",2025-02-26,2025-03-11,57,70,"TREATMENT","Y","AE","AESEQ",3
"ABC101","ABC-156","156","Drug 20 mg",2,"Drug 20 mg",2,2025-01-01,2025-03-26,"Y",1,1,"Upper Respiratory Infection","UPPER RESPIRATORY INFECTION","MODERATE","N","RECOVERED","2025-01-05","2025-01-11",2025-01-05,2025-01-11,5,11,"TREATMENT","Y","AE","AESEQ",1
"ABC101","ABC-156","156","Drug 20 mg",2,"Drug 20 mg",2,2025-01-01,2025-03-26,"Y",2,2,"Upper Respiratory Infection","UPPER RESPIRATORY INFECTION","MILD","N","RECOVERED","2025-06-21","2025-07-01",2025-06-21,2025-07-01,172,182,"FOLLOW-UP","","AE","AESEQ",2
"ABC101","ABC-156","156","Drug 20 mg",2,"Drug 20 mg",2,2025-01-01,2025-03-26,"Y",3,3,"Headache","HEADACHE","MILD","Y","RECOVERED","2025-06-15","2025-06-17",2025-06-15,2025-06-17,166,168,"FOLLOW-UP","","AE","AESEQ",3
"ABC101","ABC-157","157","Drug 10 mg",1,"Drug 10 mg",1,2025-01-01,2025-03-26,"Y",1,1,"Injection Site Reaction","INJECTION SITE REACTION","MODERATE","N","RECOVERED","2025-01-15","2025-01-24",2025-01-15,2025-01-24,15,24,"TREATMENT","Y","AE","AESEQ",1
"ABC101","ABC-158","158","Drug 10 mg",1,"Drug 10 mg",1,2025-01-01,2025-03-26,"Y",1,1,"Abdominal Pain","ABDOMINAL PAIN","MILD","N","RECOVERED","2025-04-23","2025-05-04",2025-04-23,2025-05-04,113,124,"FOLLOW-UP","Y","AE","AESEQ",1
"ABC101","ABC-159","159","Drug 20 mg",2,"Drug 20 mg",2,2025-01-01,2025-03-26,"Y",1,1,"Upper Respiratory Infection","UPPER RESPIRATORY INFECTION","MODERATE","N","RECOVERED","2025-06-07","2025-06-16",2025-06-07,2025-06-16,158,167,"FOLLOW-UP","","AE","AESEQ",1
"ABC101","ABC-159","159","Drug 20 mg",2,"Drug 20 mg",2,2025-01-01,2025-03-26,"Y",2,2,"Injection Site Reaction","INJECTION SITE REACTION","MILD","N","NOT RECOVERED","2025-05-16","2025-05-21",2025-05-16,2025-05-21,136,141,"FOLLOW-UP","","AE","AESEQ",2
"ABC101","ABC-159","159","Drug 20 mg",2,"Drug 20 mg",2,2025-01-01,2025-03-26,"Y",3,3,"Injection Site Reaction","INJECTION SITE REACTION","MILD","N","RECOVERED","2025-03-03","2025-03-08",2025-03-03,2025-03-08,62,67,"TREATMENT","Y","AE","AESEQ",3
"ABC101","ABC-159","159","Drug 20 mg",2,"Drug 20 mg",2,2025-01-01,2025-03-26,"Y",4,4,"Fatigue","FATIGUE","MILD","N","RECOVERED","2025-01-22","2025-01-26",2025-01-22,2025-01-26,22,26,"TREATMENT","Y","AE","AESEQ",4
"ABC101","ABC-160","160","Drug 20 mg",2,"Drug 20 mg",2,2025-01-01,2025-03-26,"Y",1,1,"Dizziness","DIZZINESS","MODERATE","N","RECOVERING","2025-02-21","2025-03-01",2025-02-21,2025-03-01,52,60,"TREATMENT","Y","AE","AESEQ",1
"ABC101","ABC-160","160","Drug 20 mg",2,"Drug 20 mg",2,2025-01-01,2025-03-26,"Y",2,2,"Abdominal Pain","ABDOMINAL PAIN","MODERATE","N","RECOVERED","2025-02-14","2025-02-25",2025-02-14,2025-02-25,45,56,"TREATMENT","Y","AE","AESEQ",2
"ABC101","ABC-161","161","Drug 10 mg",1,"Drug 10 mg",1,2025-01-01,2025-03-26,"Y",1,1,"Nausea","NAUSEA","MODERATE","N","RECOVERED","2025-06-24","2025-07-08",2025-06-24,2025-07-08,175,189,"FOLLOW-UP","","AE","AESEQ",1
"ABC101","ABC-162","162","Drug 20 mg",2,"Drug 20 mg",2,2025-01-01,2025-03-26,"Y",1,1,"Upper Respiratory Infection","UPPER RESPIRATORY INFECTION","MILD","N","NOT RECOVERED","2025-01-01","2025-01-10",2025-01-01,2025-01-10,1,10,"TREATMENT","Y","AE","AESEQ",1
"ABC101","ABC-162","162","Drug 20 mg",2,"Drug 20 mg",2,2025-01-01,2025-03-26,"Y",2,2,"Dizziness","DIZZINESS","MILD","N","RECOVERING","2025-04-27","2025-05-03",2025-04-27,2025-05-03,117,123,"FOLLOW-UP","","AE","AESEQ",2
"ABC101","ABC-163","163","Drug 20 mg",2,"Drug 20 mg",2,2025-01-01,2025-03-26,"Y",1,1,"Injection Site Reaction","INJECTION SITE REACTION","MILD","N","RECOVERED","2025-06-10","2025-06-16",2025-06-10,2025-06-16,161,167,"FOLLOW-UP","","AE","AESEQ",1
"ABC101","ABC-164","164","Placebo",0,"Placebo",0,2025-01-01,2025-03-26,"Y",1,1,"Upper Respiratory Infection","UPPER RESPIRATORY INFECTION","MODERATE","N","RECOVERED","2025-03-09","2025-03-19",2025-03-09,2025-03-19,68,78,"TREATMENT","Y","AE","AESEQ",1
"ABC101","ABC-164","164","Placebo",0,"Placebo",0,2025-01-01,2025-03-26,"Y",2,2,"Fatigue","FATIGUE","MODERATE","N","RECOVERED","2025-01-27","2025-02-09",2025-01-27,2025-02-09,27,40,"TREATMENT","Y","AE","AESEQ",2
"ABC101","ABC-165","165","Drug 10 mg",1,"Drug 10 mg",1,2025-01-01,2025-03-26,"Y",1,1,"Injection Site Reaction","INJECTION SITE REACTION","MILD","N","RECOVERED","2025-02-14","2025-02-27",2025-02-14,2025-02-27,45,58,"TREATMENT","Y","AE","AESEQ",1
"ABC101","ABC-166","166","Drug 10 mg",1,"Drug 10 mg",1,2025-01-01,2025-03-26,"Y",1,1,"Headache","HEADACHE","MILD","N","RECOVERED","2025-06-03","2025-06-10",2025-06-03,2025-06-10,154,161,"FOLLOW-UP","","AE","AESEQ",1
"ABC101","ABC-166","166","Drug 10 mg",1,"Drug 10 mg",1,2025-01-01,2025-03-26,"Y",2,2,"Injection Site Reaction","INJECTION SITE REACTION","MILD","N","RECOVERED","2025-03-16","2025-03-29",2025-03-16,2025-03-29,75,88,"TREATMENT","Y","AE","AESEQ",2
"ABC101","ABC-167","167","Drug 10 mg",1,"Drug 10 mg",1,2025-01-01,2025-03-26,"Y",1,1,"Diarrhea","DIARRHEA","MODERATE","N","RECOVERED","2025-06-27","2025-07-07",2025-06-27,2025-07-07,178,188,"FOLLOW-UP","","AE","AESEQ",1
"ABC101","ABC-167","167","Drug 10 mg",1,"Drug 10 mg",1,2025-01-01,2025-03-26,"Y",2,2,"Diarrhea","DIARRHEA","MILD","N","RECOVERED","2025-04-02","2025-04-11",2025-04-02,2025-04-11,92,101,"FOLLOW-UP","Y","AE","AESEQ",2
"ABC101","ABC-168","168","Drug 10 mg",1,"Drug 10 mg",1,2025-01-01,2025-03-26,"Y",1,1,"Nausea","NAUSEA","MODERATE","N","RECOVERED","2025-04-26","2025-05-03",2025-04-26,2025-05-03,116,123,"FOLLOW-UP","","AE","AESEQ",1
"ABC101","ABC-171","171","Drug 10 mg",1,"Drug 10 mg",1,2025-01-01,2025-03-26,"Y",1,1,"Abdominal Pain","ABDOMINAL PAIN","MILD","N","RECOVERED","2025-02-02","2025-02-07",2025-02-02,2025-02-07,33,38,"TREATMENT","Y","AE","AESEQ",1
"ABC101","ABC-171","171","Drug 10 mg",1,"Drug 10 mg",1,2025-01-01,2025-03-26,"Y",2,2,"Fatigue","FATIGUE","MILD","N","RECOVERED","2025-01-10","2025-01-11",2025-01-10,2025-01-11,10,11,"TREATMENT","Y","AE","AESEQ",2
"ABC101","ABC-172","172","Drug 10 mg",1,"Drug 10 mg",1,2025-01-01,2025-03-26,"Y",1,1,"Headache","HEADACHE","MODERATE","N","RECOVERED","2025-05-07","2025-05-08",2025-05-07,2025-05-08,127,128,"FOLLOW-UP","","AE","AESEQ",1
"ABC101","ABC-172","172","Drug 10 mg",1,"Drug 10 mg",1,2025-01-01,2025-03-26,"Y",2,2,"Dizziness","DIZZINESS","MODERATE","N","RECOVERED","2025-03-20","2025-03-23",2025-03-20,2025-03-23,79,82,"TREATMENT","Y","AE","AESEQ",2
"ABC101","ABC-172","172","Drug 10 mg",1,"Drug 10 mg",1,2025-01-01,2025-03-26,"Y",3,3,"Upper Respiratory Infection","UPPER RESPIRATORY INFECTION","MILD","N","RECOVERING","2025-06-21","2025-07-03",2025-06-21,2025-07-03,172,184,"FOLLOW-UP","","AE","AESEQ",3
"ABC101","ABC-172","172","Drug 10 mg",1,"Drug 10 mg",1,2025-01-01,2025-03-26,"Y",4,4,"Upper Respiratory Infection","UPPER RESPIRATORY INFECTION","MILD","N","RECOVERED","2025-04-07","2025-04-18",2025-04-07,2025-04-18,97,108,"FOLLOW-UP","Y","AE","AESEQ",4
"ABC101","ABC-174","174","Drug 20 mg",2,"Drug 20 mg",2,2025-01-01,2025-03-26,"Y",1,1,"Upper Respiratory Infection","UPPER RESPIRATORY INFECTION","SEVERE","N","RECOVERING","2025-04-07","2025-04-13",2025-04-07,2025-04-13,97,103,"FOLLOW-UP","Y","AE","AESEQ",1
"ABC101","ABC-174","174","Drug 20 mg",2,"Drug 20 mg",2,2025-01-01,2025-03-26,"Y",2,2,"Dizziness","DIZZINESS","MILD","N","RECOVERING","2025-01-03","2025-01-10",2025-01-03,2025-01-10,3,10,"TREATMENT","Y","AE","AESEQ",2
"ABC101","ABC-175","175","Placebo",0,"Placebo",0,2025-01-01,2025-03-26,"Y",1,1,"Injection Site Reaction","INJECTION SITE REACTION","MODERATE","N","RECOVERED","2025-03-17","2025-03-31",2025-03-17,2025-03-31,76,90,"TREATMENT","Y","AE","AESEQ",1
"ABC101","ABC-175","175","Placebo",0,"Placebo",0,2025-01-01,2025-03-26,"Y",2,2,"Diarrhea","DIARRHEA","MILD","N","NOT RECOVERED","2025-01-19","2025-01-21",2025-01-19,2025-01-21,19,21,"TREATMENT","Y","AE","AESEQ",2
"ABC101","ABC-175","175","Placebo",0,"Placebo",0,2025-01-01,2025-03-26,"Y",3,3,"Upper Respiratory Infection","UPPER RESPIRATORY INFECTION","MILD","N","RECOVERING","2025-02-10","2025-02-14",2025-02-10,2025-02-14,41,45,"TREATMENT","Y","AE","AESEQ",3
"ABC101","ABC-175","175","Placebo",0,"Placebo",0,2025-01-01,2025-03-26,"Y",4,4,"Injection Site Reaction","INJECTION SITE REACTION","MILD","N","RECOVERED","2025-06-30","2025-07-12",2025-06-30,2025-07-12,181,193,"FOLLOW-UP","","AE","AESEQ",4
"ABC101","ABC-175","175","Placebo",0,"Placebo",0,2025-01-01,2025-03-26,"Y",5,5,"Abdominal Pain","ABDOMINAL PAIN","MILD","N","RECOVERED","2025-03-19","2025-04-02",2025-03-19,2025-04-02,78,92,"TREATMENT","Y","AE","AESEQ",5
"ABC101","ABC-176","176","Drug 20 mg",2,"Drug 20 mg",2,2025-01-01,2025-03-26,"Y",1,1,"Abdominal Pain","ABDOMINAL PAIN","MODERATE","N","RECOVERED","2025-06-03","2025-06-11",2025-06-03,2025-06-11,154,162,"FOLLOW-UP","","AE","AESEQ",1
"ABC101","ABC-176","176","Drug 20 mg",2,"Drug 20 mg",2,2025-01-01,2025-03-26,"Y",2,2,"Dizziness","DIZZINESS","SEVERE","N","NOT RECOVERED","2025-05-07","2025-05-15",2025-05-07,2025-05-15,127,135,"FOLLOW-UP","","AE","AESEQ",2
"ABC101","ABC-177","177","Drug 20 mg",2,"Drug 20 mg",2,2025-01-01,2025-03-26,"Y",1,1,"Abdominal Pain","ABDOMINAL PAIN","MILD","N","RECOVERED","2025-02-15","2025-02-20",2025-02-15,2025-02-20,46,51,"TREATMENT","Y","AE","AESEQ",1
"ABC101","ABC-177","177","Drug 20 mg",2,"Drug 20 mg",2,2025-01-01,2025-03-26,"Y",2,2,"Injection Site Reaction","INJECTION SITE REACTION","MILD","N","RECOVERED","2025-05-07","2025-05-13",2025-05-07,2025-05-13,127,133,"FOLLOW-UP","","AE","AESEQ",2
"ABC101","ABC-177","177","Drug 20 mg",2,"Drug 20 mg",2,2025-01-01,2025-03-26,"Y",3,3,"Abdominal Pain","ABDOMINAL PAIN","MILD","N","RECOVERING","2025-03-03","2025-03-16",2025-03-03,2025-03-16,62,75,"TREATMENT","Y","AE","AESEQ",3
"ABC101","ABC-178","178","Drug 10 mg",1,"Drug 10 mg",1,2025-01-01,2025-03-26,"Y",1,1,"Nausea","NAUSEA","MODERATE","N","RECOVERED","2025-05-09","2025-05-17",2025-05-09,2025-05-17,129,137,"FOLLOW-UP","","AE","AESEQ",1
"ABC101","ABC-178","178","Drug 10 mg",1,"Drug 10 mg",1,2025-01-01,2025-03-26,"Y",2,2,"Injection Site Reaction","INJECTION SITE REACTION","MILD","N","RECOVERED","2025-05-01","2025-05-07",2025-05-01,2025-05-07,121,127,"FOLLOW-UP","","AE","AESEQ",2
"ABC101","ABC-179","179","Drug 20 mg",2,"Drug 20 mg",2,2025-01-01,2025-03-26,"Y",1,1,"Upper Respiratory Infection","UPPER RESPIRATORY INFECTION","MILD","N","RECOVERED","2025-04-23","2025-05-06",2025-04-23,2025-05-06,113,126,"FOLLOW-UP","Y","AE","AESEQ",1
"ABC101","ABC-179","179","Drug 20 mg",2,"Drug 20 mg",2,2025-01-01,2025-03-26,"Y",2,2,"Diarrhea","DIARRHEA","MILD","N","RECOVERED","2025-01-24","2025-02-01",2025-01-24,2025-02-01,24,32,"TREATMENT","Y","AE","AESEQ",2
"ABC101","ABC-180","180","Drug 20 mg",2,"Drug 20 mg",2,2025-01-01,2025-03-26,"Y",1,1,"Dizziness","DIZZINESS","SEVERE","N","NOT RECOVERED","2025-05-12","2025-05-21",2025-05-12,2025-05-21,132,141,"FOLLOW-UP","","AE","AESEQ",1
"ABC101","ABC-181","181","Drug 20 mg",2,"Drug 20 mg",2,2025-01-01,2025-03-26,"Y",1,1,"Headache","HEADACHE","MODERATE","N","RECOVERED","2025-03-18","2025-03-23",2025-03-18,2025-03-23,77,82,"TREATMENT","Y","AE","AESEQ",1
"ABC101","ABC-182","182","Placebo",0,"Placebo",0,2025-01-01,2025-03-26,"Y",1,1,"Diarrhea","DIARRHEA","MILD","N","RECOVERED","2025-06-02","2025-06-14",2025-06-02,2025-06-14,153,165,"FOLLOW-UP","","AE","AESEQ",1
"ABC101","ABC-184","184","Placebo",0,"Placebo",0,2025-01-01,2025-03-26,"Y",1,1,"Abdominal Pain","ABDOMINAL PAIN","MILD","N","RECOVERED","2025-06-29","2025-07-07",2025-06-29,2025-07-07,180,188,"FOLLOW-UP","","AE","AESEQ",1
"ABC101","ABC-185","185","Drug 20 mg",2,"Drug 20 mg",2,2025-01-01,2025-03-26,"Y",1,1,"Dizziness","DIZZINESS","MODERATE","N","RECOVERED","2025-02-02","2025-02-16",2025-02-02,2025-02-16,33,47,"TREATMENT","Y","AE","AESEQ",1
"ABC101","ABC-186","186","Placebo",0,"Placebo",0,2025-01-01,2025-03-26,"Y",1,1,"Nausea","NAUSEA","MILD","Y","RECOVERED","2025-02-25","2025-03-08",2025-02-25,2025-03-08,56,67,"TREATMENT","Y","AE","AESEQ",1
"ABC101","ABC-186","186","Placebo",0,"Placebo",0,2025-01-01,2025-03-26,"Y",2,2,"Diarrhea","DIARRHEA","MODERATE","N","NOT RECOVERED","2025-02-26","2025-03-02",2025-02-26,2025-03-02,57,61,"TREATMENT","Y","AE","AESEQ",2
"ABC101","ABC-187","187","Placebo",0,"Placebo",0,2025-01-01,2025-03-26,"Y",1,1,"Diarrhea","DIARRHEA","MODERATE","N","NOT RECOVERED","2025-04-29","2025-05-07",2025-04-29,2025-05-07,119,127,"FOLLOW-UP","","AE","AESEQ",1
"ABC101","ABC-187","187","Placebo",0,"Placebo",0,2025-01-01,2025-03-26,"Y",2,2,"Diarrhea","DIARRHEA","MILD","N","RECOVERING","2025-04-01","2025-04-07",2025-04-01,2025-04-07,91,97,"FOLLOW-UP","Y","AE","AESEQ",2
"ABC101","ABC-188","188","Drug 10 mg",1,"Drug 10 mg",1,2025-01-01,2025-03-26,"Y",1,1,"Nausea","NAUSEA","MODERATE","N","RECOVERED","2025-03-14","2025-03-28",2025-03-14,2025-03-28,73,87,"TREATMENT","Y","AE","AESEQ",1
"ABC101","ABC-188","188","Drug 10 mg",1,"Drug 10 mg",1,2025-01-01,2025-03-26,"Y",2,2,"Abdominal Pain","ABDOMINAL PAIN","MODERATE","N","RECOVERED","2025-02-01","2025-02-05",2025-02-01,2025-02-05,32,36,"TREATMENT","Y","AE","AESEQ",2
"ABC101","ABC-190","190","Placebo",0,"Placebo",0,2025-01-01,2025-03-26,"Y",1,1,"Upper Respiratory Infection","UPPER RESPIRATORY INFECTION","MILD","N","NOT RECOVERED","2025-03-24","2025-04-07",2025-03-24,2025-04-07,83,97,"TREATMENT","Y","AE","AESEQ",1
"ABC101","ABC-190","190","Placebo",0,"Placebo",0,2025-01-01,2025-03-26,"Y",2,2,"Headache","HEADACHE","MILD","N","RECOVERED","2025-06-04","2025-06-06",2025-06-04,2025-06-06,155,157,"FOLLOW-UP","","AE","AESEQ",2
"ABC101","ABC-191","191","Placebo",0,"Placebo",0,2025-01-01,2025-03-26,"Y",1,1,"Upper Respiratory Infection","UPPER RESPIRATORY INFECTION","MILD","N","RECOVERED","2025-06-22","2025-07-05",2025-06-22,2025-07-05,173,186,"FOLLOW-UP","","AE","AESEQ",1
"ABC101","ABC-191","191","Placebo",0,"Placebo",0,2025-01-01,2025-03-26,"Y",2,2,"Injection Site Reaction","INJECTION SITE REACTION","MILD","N","RECOVERED","2025-06-01","2025-06-06",2025-06-01,2025-06-06,152,157,"FOLLOW-UP","","AE","AESEQ",2
"ABC101","ABC-193","193","Drug 20 mg",2,"Drug 20 mg",2,2025-01-01,2025-03-26,"Y",1,1,"Injection Site Reaction","INJECTION SITE REACTION","MILD","N","RECOVERED","2025-02-17","2025-03-02",2025-02-17,2025-03-02,48,61,"TREATMENT","Y","AE","AESEQ",1
"ABC101","ABC-194","194","Placebo",0,"Placebo",0,2025-01-01,2025-03-26,"Y",1,1,"Nausea","NAUSEA","MILD","N","RECOVERED","2025-01-25","2025-01-30",2025-01-25,2025-01-30,25,30,"TREATMENT","Y","AE","AESEQ",1
"ABC101","ABC-195","195","Placebo",0,"Placebo",0,2025-01-01,2025-03-26,"Y",1,1,"Dizziness","DIZZINESS","MILD","N","RECOVERED","2025-01-27","2025-02-05",2025-01-27,2025-02-05,27,36,"TREATMENT","Y","AE","AESEQ",1
"ABC101","ABC-195","195","Placebo",0,"Placebo",0,2025-01-01,2025-03-26,"Y",2,2,"Injection Site Reaction","INJECTION SITE REACTION","MILD","N","RECOVERING","2025-04-17","2025-04-26",2025-04-17,2025-04-26,107,116,"FOLLOW-UP","Y","AE","AESEQ",2
"ABC101","ABC-196","196","Drug 10 mg",1,"Drug 10 mg",1,2025-01-01,2025-03-26,"Y",1,1,"Abdominal Pain","ABDOMINAL PAIN","MILD","N","RECOVERED","2025-02-25","2025-03-02",2025-02-25,2025-03-02,56,61,"TREATMENT","Y","AE","AESEQ",1
"ABC101","ABC-196","196","Drug 10 mg",1,"Drug 10 mg",1,2025-01-01,2025-03-26,"Y",2,2,"Injection Site Reaction","INJECTION SITE REACTION","MILD","N","RECOVERED","2025-04-07","2025-04-10",2025-04-07,2025-04-10,97,100,"FOLLOW-UP","Y","AE","AESEQ",2
"ABC101","ABC-197","197","Placebo",0,"Placebo",0,2025-01-01,2025-03-26,"Y",1,1,"Diarrhea","DIARRHEA","MILD","N","RECOVERED","2025-06-03","2025-06-07",2025-06-03,2025-06-07,154,158,"FOLLOW-UP","","AE","AESEQ",1
"ABC101","ABC-197","197","Placebo",0,"Placebo",0,2025-01-01,2025-03-26,"Y",2,2,"Diarrhea","DIARRHEA","MODERATE","N","RECOVERED","2025-03-15","2025-03-25",2025-03-15,2025-03-25,74,84,"TREATMENT","Y","AE","AESEQ",2
"ABC101","ABC-197","197","Placebo",0,"Placebo",0,2025-01-01,2025-03-26,"Y",3,3,"Abdominal Pain","ABDOMINAL PAIN","MILD","N","RECOVERED","2025-05-23","2025-06-03",2025-05-23,2025-06-03,143,154,"FOLLOW-UP","","AE","AESEQ",3
"ABC101","ABC-198","198","Placebo",0,"Placebo",0,2025-01-01,2025-03-26,"Y",1,1,"Dizziness","DIZZINESS","MILD","N","RECOVERED","2025-03-23","2025-03-31",2025-03-23,2025-03-31,82,90,"TREATMENT","Y","AE","AESEQ",1
"ABC101","ABC-198","198","Placebo",0,"Placebo",0,2025-01-01,2025-03-26,"Y",2,2,"Diarrhea","DIARRHEA","MILD","N","RECOVERING","2025-01-26","2025-01-29",2025-01-26,2025-01-29,26,29,"TREATMENT","Y","AE","AESEQ",2
"ABC101","ABC-200","200","Drug 10 mg",1,"Drug 10 mg",1,2025-01-01,2025-03-26,"Y",1,1,"Headache","HEADACHE","MILD","N","RECOVERED","2025-06-03","2025-06-10",2025-06-03,2025-06-10,154,161,"FOLLOW-UP","","AE","AESEQ",1
"ABC101","ABC-201","201","Drug 20 mg",2,"Drug 20 mg",2,2025-01-01,2025-03-26,"Y",1,1,"Nausea","NAUSEA","MODERATE","N","RECOVERED","2025-03-29","2025-04-11",2025-03-29,2025-04-11,88,101,"FOLLOW-UP","Y","AE","AESEQ",1
"ABC101","ABC-202","202","Drug 10 mg",1,"Drug 10 mg",1,2025-01-01,2025-03-26,"Y",1,1,"Diarrhea","DIARRHEA","MILD","N","RECOVERED","2025-04-09","2025-04-18",2025-04-09,2025-04-18,99,108,"FOLLOW-UP","Y","AE","AESEQ",1
"ABC101","ABC-202","202","Drug 10 mg",1,"Drug 10 mg",1,2025-01-01,2025-03-26,"Y",2,2,"Nausea","NAUSEA","MODERATE","N","RECOVERED","2025-03-14","2025-03-28",2025-03-14,2025-03-28,73,87,"TREATMENT","Y","AE","AESEQ",2
"ABC101","ABC-204","204","Placebo",0,"Placebo",0,2025-01-01,2025-03-26,"Y",1,1,"Dizziness","DIZZINESS","MODERATE","N","RECOVERED","2025-02-22","2025-02-27",2025-02-22,2025-02-27,53,58,"TREATMENT","Y","AE","AESEQ",1
"ABC101","ABC-205","205","Drug 10 mg",1,"Drug 10 mg",1,2025-01-01,2025-03-26,"Y",1,1,"Fatigue","FATIGUE","MILD","N","RECOVERED","2025-06-14","2025-06-23",2025-06-14,2025-06-23,165,174,"FOLLOW-UP","","AE","AESEQ",1
"ABC101","ABC-205","205","Drug 10 mg",1,"Drug 10 mg",1,2025-01-01,2025-03-26,"Y",2,2,"Abdominal Pain","ABDOMINAL PAIN","MILD","N","RECOVERED","2025-05-19","2025-05-21",2025-05-19,2025-05-21,139,141,"FOLLOW-UP","","AE","AESEQ",2
"ABC101","ABC-206","206","Drug 10 mg",1,"Drug 10 mg",1,2025-01-01,2025-03-26,"Y",1,1,"Injection Site Reaction","INJECTION SITE REACTION","MODERATE","N","RECOVERED","2025-04-28","2025-05-02",2025-04-28,2025-05-02,118,122,"FOLLOW-UP","","AE","AESEQ",1
"ABC101","ABC-206","206","Drug 10 mg",1,"Drug 10 mg",1,2025-01-01,2025-03-26,"Y",2,2,"Nausea","NAUSEA","MODERATE","N","RECOVERED","2025-06-10","2025-06-23",2025-06-10,2025-06-23,161,174,"FOLLOW-UP","","AE","AESEQ",2
"ABC101","ABC-206","206","Drug 10 mg",1,"Drug 10 mg",1,2025-01-01,2025-03-26,"Y",3,3,"Dizziness","DIZZINESS","MILD","N","RECOVERED","2025-02-24","2025-02-26",2025-02-24,2025-02-26,55,57,"TREATMENT","Y","AE","AESEQ",3
"ABC101","ABC-207","207","Drug 10 mg",1,"Drug 10 mg",1,2025-01-01,2025-03-26,"Y",1,1,"Injection Site Reaction","INJECTION SITE REACTION","MILD","N","RECOVERED","2025-01-20","2025-01-23",2025-01-20,2025-01-23,20,23,"TREATMENT","Y","AE","AESEQ",1
"ABC101","ABC-209","209","Drug 10 mg",1,"Drug 10 mg",1,2025-01-01,2025-03-26,"Y",1,1,"Fatigue","FATIGUE","MILD","N","RECOVERED","2025-01-11","2025-01-22",2025-01-11,2025-01-22,11,22,"TREATMENT","Y","AE","AESEQ",1
"ABC101","ABC-209","209","Drug 10 mg",1,"Drug 10 mg",1,2025-01-01,2025-03-26,"Y",2,2,"Nausea","NAUSEA","MODERATE","N","RECOVERED","2025-01-14","2025-01-15",2025-01-14,2025-01-15,14,15,"TREATMENT","Y","AE","AESEQ",2
"ABC101","ABC-209","209","Drug 10 mg",1,"Drug 10 mg",1,2025-01-01,2025-03-26,"Y",3,3,"Dizziness","DIZZINESS","MODERATE","N","RECOVERED","2025-02-28","2025-03-08",2025-02-28,2025-03-08,59,67,"TREATMENT","Y","AE","AESEQ",3
"ABC101","ABC-209","209","Drug 10 mg",1,"Drug 10 mg",1,2025-01-01,2025-03-26,"Y",4,4,"Fatigue","FATIGUE","MILD","N","RECOVERING","2025-01-30","2025-02-13",2025-01-30,2025-02-13,30,44,"TREATMENT","Y","AE","AESEQ",4
"ABC101","ABC-210","210","Placebo",0,"Placebo",0,2025-01-01,2025-03-26,"Y",1,1,"Upper Respiratory Infection","UPPER RESPIRATORY INFECTION","MILD","N","RECOVERING","2025-06-04","2025-06-08",2025-06-04,2025-06-08,155,159,"FOLLOW-UP","","AE","AESEQ",1
"ABC101","ABC-211","211","Drug 20 mg",2,"Drug 20 mg",2,2025-01-01,2025-03-26,"Y",1,1,"Abdominal Pain","ABDOMINAL PAIN","MILD","N","RECOVERING","2025-04-12","2025-04-19",2025-04-12,2025-04-19,102,109,"FOLLOW-UP","Y","AE","AESEQ",1
"ABC101","ABC-215","215","Placebo",0,"Placebo",0,2025-01-01,2025-03-26,"Y",1,1,"Upper Respiratory Infection","UPPER RESPIRATORY INFECTION","MILD","N","RECOVERED","2025-02-18","2025-02-23",2025-02-18,2025-02-23,49,54,"TREATMENT","Y","AE","AESEQ",1
"ABC101","ABC-217","217","Drug 10 mg",1,"Drug 10 mg",1,2025-01-01,2025-03-26,"Y",1,1,"Nausea","NAUSEA","MILD","N","RECOVERED","2025-03-08","2025-03-22",2025-03-08,2025-03-22,67,81,"TREATMENT","Y","AE","AESEQ",1
"ABC101","ABC-218","218","Drug 20 mg",2,"Drug 20 mg",2,2025-01-01,2025-03-26,"Y",1,1,"Nausea","NAUSEA","MODERATE","N","RECOVERED","2025-03-17","2025-03-24",2025-03-17,2025-03-24,76,83,"TREATMENT","Y","AE","AESEQ",1
"ABC101","ABC-218","218","Drug 20 mg",2,"Drug 20 mg",2,2025-01-01,2025-03-26,"Y",2,2,"Upper Respiratory Infection","UPPER RESPIRATORY INFECTION","MILD","N","RECOVERED","2025-04-11","2025-04-13",2025-04-11,2025-04-13,101,103,"FOLLOW-UP","Y","AE","AESEQ",2
"ABC101","ABC-218","218","Drug 20 mg",2,"Drug 20 mg",2,2025-01-01,2025-03-26,"Y",3,3,"Nausea","NAUSEA","MILD","N","RECOVERED","2025-05-29","2025-06-08",2025-05-29,2025-06-08,149,159,"FOLLOW-UP","","AE","AESEQ",3
"ABC101","ABC-220","220","Drug 20 mg",2,"Drug 20 mg",2,2025-01-01,2025-03-26,"Y",1,1,"Injection Site Reaction","INJECTION SITE REACTION","MODERATE","N","NOT RECOVERED","2025-04-10","2025-04-12",2025-04-10,2025-04-12,100,102,"FOLLOW-UP","Y","AE","AESEQ",1
"ABC101","ABC-225","225","Drug 20 mg",2,"Drug 20 mg",2,2025-01-01,2025-03-26,"Y",1,1,"Diarrhea","DIARRHEA","MILD","N","RECOVERED","2025-01-22","2025-01-30",2025-01-22,2025-01-30,22,30,"TREATMENT","Y","AE","AESEQ",1
"ABC101","ABC-225","225","Drug 20 mg",2,"Drug 20 mg",2,2025-01-01,2025-03-26,"Y",2,2,"Headache","HEADACHE","MILD","N","RECOVERING","2025-05-05","2025-05-14",2025-05-05,2025-05-14,125,134,"FOLLOW-UP","","AE","AESEQ",2
"ABC101","ABC-226","226","Placebo",0,"Placebo",0,2025-01-01,2025-03-26,"Y",1,1,"Upper Respiratory Infection","UPPER RESPIRATORY INFECTION","MILD","N","RECOVERED","2025-06-07","2025-06-13",2025-06-07,2025-06-13,158,164,"FOLLOW-UP","","AE","AESEQ",1
"ABC101","ABC-226","226","Placebo",0,"Placebo",0,2025-01-01,2025-03-26,"Y",2,2,"Nausea","NAUSEA","MODERATE","N","RECOVERED","2025-04-29","2025-05-05",2025-04-29,2025-05-05,119,125,"FOLLOW-UP","","AE","AESEQ",2
"ABC101","ABC-227","227","Placebo",0,"Placebo",0,2025-01-01,2025-03-26,"Y",1,1,"Abdominal Pain","ABDOMINAL PAIN","MILD","N","RECOVERED","2025-02-07","2025-02-08",2025-02-07,2025-02-08,38,39,"TREATMENT","Y","AE","AESEQ",1
"ABC101","ABC-227","227","Placebo",0,"Placebo",0,2025-01-01,2025-03-26,"Y",2,2,"Dizziness","DIZZINESS","SEVERE","N","NOT RECOVERED","2025-05-01","2025-05-03",2025-05-01,2025-05-03,121,123,"FOLLOW-UP","","AE","AESEQ",2
"ABC101","ABC-228","228","Placebo",0,"Placebo",0,2025-01-01,2025-03-26,"Y",1,1,"Diarrhea","DIARRHEA","MODERATE","N","NOT RECOVERED","2025-03-12","2025-03-20",2025-03-12,2025-03-20,71,79,"TREATMENT","Y","AE","AESEQ",1
"ABC101","ABC-229","229","Drug 20 mg",2,"Drug 20 mg",2,2025-01-01,2025-03-26,"Y",1,1,"Diarrhea","DIARRHEA","MILD","N","RECOVERING","2025-06-19","2025-06-30",2025-06-19,2025-06-30,170,181,"FOLLOW-UP","","AE","AESEQ",1
"ABC101","ABC-229","229","Drug 20 mg",2,"Drug 20 mg",2,2025-01-01,2025-03-26,"Y",2,2,"Injection Site Reaction","INJECTION SITE REACTION","MILD","N","RECOVERING","2025-05-21","2025-05-29",2025-05-21,2025-05-29,141,149,"FOLLOW-UP","","AE","AESEQ",2
"ABC101","ABC-230","230","Placebo",0,"Placebo",0,2025-01-01,2025-03-26,"Y",1,1,"Dizziness","DIZZINESS","MILD","N","RECOVERED","2025-05-31","2025-06-07",2025-05-31,2025-06-07,151,158,"FOLLOW-UP","","AE","AESEQ",1
"ABC101","ABC-230","230","Placebo",0,"Placebo",0,2025-01-01,2025-03-26,"Y",2,2,"Headache","HEADACHE","MILD","Y","RECOVERED","2025-05-10","2025-05-20",2025-05-10,2025-05-20,130,140,"FOLLOW-UP","","AE","AESEQ",2
"ABC101","ABC-231","231","Drug 10 mg",1,"Drug 10 mg",1,2025-01-01,2025-03-26,"Y",1,1,"Upper Respiratory Infection","UPPER RESPIRATORY INFECTION","SEVERE","N","RECOVERED","2025-03-16","2025-03-27",2025-03-16,2025-03-27,75,86,"TREATMENT","Y","AE","AESEQ",1
"ABC101","ABC-231","231","Drug 10 mg",1,"Drug 10 mg",1,2025-01-01,2025-03-26,"Y",2,2,"Diarrhea","DIARRHEA","SEVERE","N","RECOVERED","2025-01-14","2025-01-16",2025-01-14,2025-01-16,14,16,"TREATMENT","Y","AE","AESEQ",2
"ABC101","ABC-232","232","Drug 20 mg",2,"Drug 20 mg",2,2025-01-01,2025-03-26,"Y",1,1,"Injection Site Reaction","INJECTION SITE REACTION","MILD","N","RECOVERED","2025-05-04","2025-05-17",2025-05-04,2025-05-17,124,137,"FOLLOW-UP","","AE","AESEQ",1
"ABC101","ABC-233","233","Placebo",0,"Placebo",0,2025-01-01,2025-03-26,"Y",1,1,"Diarrhea","DIARRHEA","MILD","N","RECOVERED","2025-03-24","2025-03-30",2025-03-24,2025-03-30,83,89,"TREATMENT","Y","AE","AESEQ",1
"ABC101","ABC-234","234","Drug 10 mg",1,"Drug 10 mg",1,2025-01-01,2025-03-26,"Y",1,1,"Dizziness","DIZZINESS","MODERATE","N","RECOVERED","2025-05-30","2025-06-12",2025-05-30,2025-06-12,150,163,"FOLLOW-UP","","AE","AESEQ",1
"ABC101","ABC-234","234","Drug 10 mg",1,"Drug 10 mg",1,2025-01-01,2025-03-26,"Y",2,2,"Dizziness","DIZZINESS","MILD","N","RECOVERED","2025-02-16","2025-02-20",2025-02-16,2025-02-20,47,51,"TREATMENT","Y","AE","AESEQ",2
"ABC101","ABC-235","235","Drug 10 mg",1,"Drug 10 mg",1,2025-01-01,2025-03-26,"Y",1,1,"Dizziness","DIZZINESS","MILD","N","RECOVERED","2025-04-15","2025-04-16",2025-04-15,2025-04-16,105,106,"FOLLOW-UP","Y","AE","AESEQ",1
"ABC101","ABC-236","236","Drug 20 mg",2,"Drug 20 mg",2,2025-01-01,2025-03-26,"Y",1,1,"Injection Site Reaction","INJECTION SITE REACTION","MODERATE","Y","RECOVERED","2025-04-21","2025-05-05",2025-04-21,2025-05-05,111,125,"FOLLOW-UP","Y","AE","AESEQ",1
"ABC101","ABC-236","236","Drug 20 mg",2,"Drug 20 mg",2,2025-01-01,2025-03-26,"Y",2,2,"Diarrhea","DIARRHEA","MILD","N","NOT RECOVERED","2025-02-27","2025-03-09",2025-02-27,2025-03-09,58,68,"TREATMENT","Y","AE","AESEQ",2
"ABC101","ABC-237","237","Drug 10 mg",1,"Drug 10 mg",1,2025-01-01,2025-03-26,"Y",1,1,"Headache","HEADACHE","MILD","N","RECOVERED","2025-01-23","2025-01-26",2025-01-23,2025-01-26,23,26,"TREATMENT","Y","AE","AESEQ",1
"ABC101","ABC-237","237","Drug 10 mg",1,"Drug 10 mg",1,2025-01-01,2025-03-26,"Y",2,2,"Injection Site Reaction","INJECTION SITE REACTION","MILD","N","NOT RECOVERED","2025-02-18","2025-02-24",2025-02-18,2025-02-24,49,55,"TREATMENT","Y","AE","AESEQ",2
"ABC101","ABC-237","237","Drug 10 mg",1,"Drug 10 mg",1,2025-01-01,2025-03-26,"Y",3,3,"Diarrhea","DIARRHEA","MILD","N","RECOVERING","2025-05-13","2025-05-15",2025-05-13,2025-05-15,133,135,"FOLLOW-UP","","AE","AESEQ",3
"ABC101","ABC-237","237","Drug 10 mg",1,"Drug 10 mg",1,2025-01-01,2025-03-26,"Y",4,4,"Diarrhea","DIARRHEA","MILD","N","RECOVERED","2025-02-07","2025-02-16",2025-02-07,2025-02-16,38,47,"TREATMENT","Y","AE","AESEQ",4
"ABC101","ABC-239","239","Drug 20 mg",2,"Drug 20 mg",2,2025-01-01,2025-03-26,"Y",1,1,"Abdominal Pain","ABDOMINAL PAIN","MILD","N","RECOVERING","2025-03-15","2025-03-23",2025-03-15,2025-03-23,74,82,"TREATMENT","Y","AE","AESEQ",1
"ABC101","ABC-240","240","Drug 10 mg",1,"Drug 10 mg",1,2025-01-01,2025-03-26,"Y",1,1,"Nausea","NAUSEA","MILD","N","NOT RECOVERED","2025-01-28","2025-02-11",2025-01-28,2025-02-11,28,42,"TREATMENT","Y","AE","AESEQ",1
"ABC101","ABC-240","240","Drug 10 mg",1,"Drug 10 mg",1,2025-01-01,2025-03-26,"Y",2,2,"Fatigue","FATIGUE","MODERATE","N","NOT RECOVERED","2025-02-05","2025-02-16",2025-02-05,2025-02-16,36,47,"TREATMENT","Y","AE","AESEQ",2
"ABC101","ABC-241","241","Placebo",0,"Placebo",0,2025-01-01,2025-03-26,"Y",1,1,"Fatigue","FATIGUE","MILD","N","RECOVERED","2025-05-31","2025-06-01",2025-05-31,2025-06-01,151,152,"FOLLOW-UP","","AE","AESEQ",1
"ABC101","ABC-243","243","Placebo",0,"Placebo",0,2025-01-01,2025-03-26,"Y",1,1,"Diarrhea","DIARRHEA","MILD","N","RECOVERED","2025-02-08","2025-02-19",2025-02-08,2025-02-19,39,50,"TREATMENT","Y","AE","AESEQ",1
"ABC101","ABC-244","244","Drug 20 mg",2,"Drug 20 mg",2,2025-01-01,2025-03-26,"Y",1,1,"Abdominal Pain","ABDOMINAL PAIN","MILD","N","RECOVERED","2025-02-22","2025-03-07",2025-02-22,2025-03-07,53,66,"TREATMENT","Y","AE","AESEQ",1
"ABC101","ABC-247","247","Drug 20 mg",2,"Drug 20 mg",2,2025-01-01,2025-03-26,"Y",1,1,"Nausea","NAUSEA","MODERATE","N","RECOVERED","2025-04-14","2025-04-22",2025-04-14,2025-04-22,104,112,"FOLLOW-UP","Y","AE","AESEQ",1
"ABC101","ABC-248","248","Drug 20 mg",2,"Drug 20 mg",2,2025-01-01,2025-03-26,"Y",1,1,"Fatigue","FATIGUE","MODERATE","N","RECOVERED","2025-04-16","2025-04-17",2025-04-16,2025-04-17,106,107,"FOLLOW-UP","Y","AE","AESEQ",1
"ABC101","ABC-248","248","Drug 20 mg",2,"Drug 20 mg",2,2025-01-01,2025-03-26,"Y",2,2,"Fatigue","FATIGUE","MODERATE","N","RECOVERED","2025-05-02","2025-05-06",2025-05-02,2025-05-06,122,126,"FOLLOW-UP","","AE","AESEQ",2
"ABC101","ABC-248","248","Drug 20 mg",2,"Drug 20 mg",2,2025-01-01,2025-03-26,"Y",3,3,"Upper Respiratory Infection","UPPER RESPIRATORY INFECTION","MILD","N","RECOVERED","2025-06-07","2025-06-08",2025-06-07,2025-06-08,158,159,"FOLLOW-UP","","AE","AESEQ",3
"ABC101","ABC-249","249","Drug 10 mg",1,"Drug 10 mg",1,2025-01-01,2025-03-26,"Y",1,1,"Nausea","NAUSEA","MODERATE","N","RECOVERED","2025-02-10","2025-02-24",2025-02-10,2025-02-24,41,55,"TREATMENT","Y","AE","AESEQ",1
"ABC101","ABC-250","250","Drug 20 mg",2,"Drug 20 mg",2,2025-01-01,2025-03-26,"Y",1,1,"Nausea","NAUSEA","MODERATE","N","RECOVERED","2025-02-11","2025-02-13",2025-02-11,2025-02-13,42,44,"TREATMENT","Y","AE","AESEQ",1
"ABC101","ABC-250","250","Drug 20 mg",2,"Drug 20 mg",2,2025-01-01,2025-03-26,"Y",2,2,"Nausea","NAUSEA","MILD","N","RECOVERED","2025-05-13","2025-05-19",2025-05-13,2025-05-19,133,139,"FOLLOW-UP","","AE","AESEQ",2
"ABC101","ABC-251","251","Placebo",0,"Placebo",0,2025-01-01,2025-03-26,"Y",1,1,"Diarrhea","DIARRHEA","MODERATE","N","NOT RECOVERED","2025-04-19","2025-04-28",2025-04-19,2025-04-28,109,118,"FOLLOW-UP","Y","AE","AESEQ",1
"ABC101","ABC-252","252","Drug 10 mg",1,"Drug 10 mg",1,2025-01-01,2025-03-26,"Y",1,1,"Diarrhea","DIARRHEA","MILD","N","RECOVERING","2025-02-27","2025-03-03",2025-02-27,2025-03-03,58,62,"TREATMENT","Y","AE","AESEQ",1
"ABC101","ABC-253","253","Drug 10 mg",1,"Drug 10 mg",1,2025-01-01,2025-03-26,"Y",1,1,"Fatigue","FATIGUE","MILD","N","RECOVERED","2025-01-26","2025-02-06",2025-01-26,2025-02-06,26,37,"TREATMENT","Y","AE","AESEQ",1
"ABC101","ABC-253","253","Drug 10 mg",1,"Drug 10 mg",1,2025-01-01,2025-03-26,"Y",2,2,"Abdominal Pain","ABDOMINAL PAIN","MODERATE","N","RECOVERING","2025-01-17","2025-01-23",2025-01-17,2025-01-23,17,23,"TREATMENT","Y","AE","AESEQ",2
"ABC101","ABC-254","254","Placebo",0,"Placebo",0,2025-01-01,2025-03-26,"Y",1,1,"Fatigue","FATIGUE","MODERATE","N","RECOVERED","2025-03-27","2025-03-28",2025-03-27,2025-03-28,86,87,"FOLLOW-UP","Y","AE","AESEQ",1
"ABC101","ABC-256","256","Drug 20 mg",2,"Drug 20 mg",2,2025-01-01,2025-03-26,"Y",1,1,"Upper Respiratory Infection","UPPER RESPIRATORY INFECTION","MILD","N","RECOVERED","2025-06-01","2025-06-02",2025-06-01,2025-06-02,152,153,"FOLLOW-UP","","AE","AESEQ",1
"ABC101","ABC-259","259","Drug 10 mg",1,"Drug 10 mg",1,2025-01-01,2025-03-26,"Y",1,1,"Fatigue","FATIGUE","MILD","N","RECOVERED","2025-02-14","2025-02-24",2025-02-14,2025-02-24,45,55,"TREATMENT","Y","AE","AESEQ",1
"ABC101","ABC-259","259","Drug 10 mg",1,"Drug 10 mg",1,2025-01-01,2025-03-26,"Y",2,2,"Dizziness","DIZZINESS","MILD","N","RECOVERING","2025-03-13","2025-03-26",2025-03-13,2025-03-26,72,85,"TREATMENT","Y","AE","AESEQ",2
"ABC101","ABC-260","260","Drug 20 mg",2,"Drug 20 mg",2,2025-01-01,2025-03-26,"Y",1,1,"Upper Respiratory Infection","UPPER RESPIRATORY INFECTION","MILD","N","RECOVERED","2025-03-23","2025-04-06",2025-03-23,2025-04-06,82,96,"TREATMENT","Y","AE","AESEQ",1
"ABC101","ABC-260","260","Drug 20 mg",2,"Drug 20 mg",2,2025-01-01,2025-03-26,"Y",2,2,"Upper Respiratory Infection","UPPER RESPIRATORY INFECTION","MILD","N","RECOVERED","2025-02-09","2025-02-17",2025-02-09,2025-02-17,40,48,"TREATMENT","Y","AE","AESEQ",2
"ABC101","ABC-260","260","Drug 20 mg",2,"Drug 20 mg",2,2025-01-01,2025-03-26,"Y",3,3,"Diarrhea","DIARRHEA","MILD","N","RECOVERED","2025-01-13","2025-01-15",2025-01-13,2025-01-15,13,15,"TREATMENT","Y","AE","AESEQ",3
"ABC101","ABC-262","262","Drug 10 mg",1,"Drug 10 mg",1,2025-01-01,2025-03-26,"Y",1,1,"Headache","HEADACHE","SEVERE","N","RECOVERED","2025-04-17","2025-04-24",2025-04-17,2025-04-24,107,114,"FOLLOW-UP","Y","AE","AESEQ",1
"ABC101","ABC-262","262","Drug 10 mg",1,"Drug 10 mg",1,2025-01-01,2025-03-26,"Y",2,2,"Nausea","NAUSEA","MILD","N","RECOVERED","2025-06-17","2025-06-23",2025-06-17,2025-06-23,168,174,"FOLLOW-UP","","AE","AESEQ",2
"ABC101","ABC-264","264","Placebo",0,"Placebo",0,2025-01-01,2025-03-26,"Y",1,1,"Fatigue","FATIGUE","MODERATE","N","RECOVERING","2025-05-31","2025-06-05",2025-05-31,2025-06-05,151,156,"FOLLOW-UP","","AE","AESEQ",1
"ABC101","ABC-265","265","Drug 20 mg",2,"Drug 20 mg",2,2025-01-01,2025-03-26,"Y",1,1,"Abdominal Pain","ABDOMINAL PAIN","MILD","N","RECOVERING","2025-02-13","2025-02-27",2025-02-13,2025-02-27,44,58,"TREATMENT","Y","AE","AESEQ",1
"ABC101","ABC-265","265","Drug 20 mg",2,"Drug 20 mg",2,2025-01-01,2025-03-26,"Y",2,2,"Injection Site Reaction","INJECTION SITE REACTION","MODERATE","N","RECOVERED","2025-01-23","2025-02-06",2025-01-23,2025-02-06,23,37,"TREATMENT","Y","AE","AESEQ",2
"ABC101","ABC-265","265","Drug 20 mg",2,"Drug 20 mg",2,2025-01-01,2025-03-26,"Y",3,3,"Dizziness","DIZZINESS","MILD","N","RECOVERED","2025-05-02","2025-05-03",2025-05-02,2025-05-03,122,123,"FOLLOW-UP","","AE","AESEQ",3
"ABC101","ABC-266","266","Drug 20 mg",2,"Drug 20 mg",2,2025-01-01,2025-03-26,"Y",1,1,"Headache","HEADACHE","MILD","N","RECOVERED","2025-01-30","2025-01-31",2025-01-30,2025-01-31,30,31,"TREATMENT","Y","AE","AESEQ",1
"ABC101","ABC-266","266","Drug 20 mg",2,"Drug 20 mg",2,2025-01-01,2025-03-26,"Y",2,2,"Fatigue","FATIGUE","MILD","N","RECOVERING","2025-02-12","2025-02-23",2025-02-12,2025-02-23,43,54,"TREATMENT","Y","AE","AESEQ",2
"ABC101","ABC-267","267","Drug 20 mg",2,"Drug 20 mg",2,2025-01-01,2025-03-26,"Y",1,1,"Diarrhea","DIARRHEA","MODERATE","N","RECOVERED","2025-05-11","2025-05-21",2025-05-11,2025-05-21,131,141,"FOLLOW-UP","","AE","AESEQ",1
"ABC101","ABC-267","267","Drug 20 mg",2,"Drug 20 mg",2,2025-01-01,2025-03-26,"Y",2,2,"Diarrhea","DIARRHEA","MILD","N","NOT RECOVERED","2025-06-02","2025-06-13",2025-06-02,2025-06-13,153,164,"FOLLOW-UP","","AE","AESEQ",2
"ABC101","ABC-268","268","Drug 10 mg",1,"Drug 10 mg",1,2025-01-01,2025-03-26,"Y",1,1,"Abdominal Pain","ABDOMINAL PAIN","MILD","N","NOT RECOVERED","2025-05-30","2025-06-09",2025-05-30,2025-06-09,150,160,"FOLLOW-UP","","AE","AESEQ",1
"ABC101","ABC-268","268","Drug 10 mg",1,"Drug 10 mg",1,2025-01-01,2025-03-26,"Y",2,2,"Injection Site Reaction","INJECTION SITE REACTION","MILD","N","NOT RECOVERED","2025-03-10","2025-03-12",2025-03-10,2025-03-12,69,71,"TREATMENT","Y","AE","AESEQ",2
"ABC101","ABC-268","268","Drug 10 mg",1,"Drug 10 mg",1,2025-01-01,2025-03-26,"Y",3,3,"Headache","HEADACHE","MODERATE","N","RECOVERING","2025-06-01","2025-06-11",2025-06-01,2025-06-11,152,162,"FOLLOW-UP","","AE","AESEQ",3
"ABC101","ABC-269","269","Drug 10 mg",1,"Drug 10 mg",1,2025-01-01,2025-03-26,"Y",1,1,"Fatigue","FATIGUE","MILD","N","RECOVERING","2025-05-19","2025-05-27",2025-05-19,2025-05-27,139,147,"FOLLOW-UP","","AE","AESEQ",1
"ABC101","ABC-269","269","Drug 10 mg",1,"Drug 10 mg",1,2025-01-01,2025-03-26,"Y",2,2,"Fatigue","FATIGUE","MILD","N","NOT RECOVERED","2025-03-05","2025-03-06",2025-03-05,2025-03-06,64,65,"TREATMENT","Y","AE","AESEQ",2
"ABC101","ABC-271","271","Placebo",0,"Placebo",0,2025-01-01,2025-03-26,"Y",1,1,"Abdominal Pain","ABDOMINAL PAIN","MILD","N","RECOVERED","2025-01-23","2025-02-02",2025-01-23,2025-02-02,23,33,"TREATMENT","Y","AE","AESEQ",1
"ABC101","ABC-272","272","Drug 20 mg",2,"Drug 20 mg",2,2025-01-01,2025-03-26,"Y",1,1,"Fatigue","FATIGUE","MODERATE","N","RECOVERED","2025-06-17","2025-06-23",2025-06-17,2025-06-23,168,174,"FOLLOW-UP","","AE","AESEQ",1
"ABC101","ABC-273","273","Drug 10 mg",1,"Drug 10 mg",1,2025-01-01,2025-03-26,"Y",1,1,"Dizziness","DIZZINESS","MILD","N","RECOVERING","2025-03-31","2025-04-08",2025-03-31,2025-04-08,90,98,"FOLLOW-UP","Y","AE","AESEQ",1
"ABC101","ABC-273","273","Drug 10 mg",1,"Drug 10 mg",1,2025-01-01,2025-03-26,"Y",2,2,"Diarrhea","DIARRHEA","MODERATE","N","RECOVERED","2025-05-12","2025-05-20",2025-05-12,2025-05-20,132,140,"FOLLOW-UP","","AE","AESEQ",2
"ABC101","ABC-273","273","Drug 10 mg",1,"Drug 10 mg",1,2025-01-01,2025-03-26,"Y",3,3,"Fatigue","FATIGUE","MODERATE","N","RECOVERED","2025-04-16","2025-04-22",2025-04-16,2025-04-22,106,112,"FOLLOW-UP","Y","AE","AESEQ",3
"ABC101","ABC-273","273","Drug 10 mg",1,"Drug 10 mg",1,2025-01-01,2025-03-26,"Y",4,4,"Nausea","NAUSEA","MODERATE","N","RECOVERING","2025-06-25","2025-07-01",2025-06-25,2025-07-01,176,182,"FOLLOW-UP","","AE","AESEQ",4
"ABC101","ABC-274","274","Drug 20 mg",2,"Drug 20 mg",2,2025-01-01,2025-03-26,"Y",1,1,"Diarrhea","DIARRHEA","SEVERE","N","RECOVERED","2025-03-10","2025-03-17",2025-03-10,2025-03-17,69,76,"TREATMENT","Y","AE","AESEQ",1
"ABC101","ABC-275","275","Drug 20 mg",2,"Drug 20 mg",2,2025-01-01,2025-03-26,"Y",1,1,"Fatigue","FATIGUE","MODERATE","N","RECOVERING","2025-06-02","2025-06-13",2025-06-02,2025-06-13,153,164,"FOLLOW-UP","","AE","AESEQ",1
"ABC101","ABC-275","275","Drug 20 mg",2,"Drug 20 mg",2,2025-01-01,2025-03-26,"Y",2,2,"Injection Site Reaction","INJECTION SITE REACTION","MILD","N","RECOVERED","2025-01-08","2025-01-15",2025-01-08,2025-01-15,8,15,"TREATMENT","Y","AE","AESEQ",2
"ABC101","ABC-277","277","Drug 10 mg",1,"Drug 10 mg",1,2025-01-01,2025-03-26,"Y",1,1,"Fatigue","FATIGUE","MODERATE","N","RECOVERED","2025-06-19","2025-06-22",2025-06-19,2025-06-22,170,173,"FOLLOW-UP","","AE","AESEQ",1
"ABC101","ABC-280","280","Drug 20 mg",2,"Drug 20 mg",2,2025-01-01,2025-03-26,"Y",1,1,"Dizziness","DIZZINESS","MODERATE","N","RECOVERED","2025-02-14","2025-02-25",2025-02-14,2025-02-25,45,56,"TREATMENT","Y","AE","AESEQ",1
"ABC101","ABC-280","280","Drug 20 mg",2,"Drug 20 mg",2,2025-01-01,2025-03-26,"Y",2,2,"Nausea","NAUSEA","MILD","N","RECOVERED","2025-04-18","2025-04-20",2025-04-18,2025-04-20,108,110,"FOLLOW-UP","Y","AE","AESEQ",2
"ABC101","ABC-280","280","Drug 20 mg",2,"Drug 20 mg",2,2025-01-01,2025-03-26,"Y",3,3,"Upper Respiratory Infection","UPPER RESPIRATORY INFECTION","MILD","N","RECOVERED","2025-03-05","2025-03-16",2025-03-05,2025-03-16,64,75,"TREATMENT","Y","AE","AESEQ",3
"ABC101","ABC-280","280","Drug 20 mg",2,"Drug 20 mg",2,2025-01-01,2025-03-26,"Y",4,4,"Nausea","NAUSEA","MILD","Y","RECOVERED","2025-02-19","2025-03-01",2025-02-19,2025-03-01,50,60,"TREATMENT","Y","AE","AESEQ",4
"ABC101","ABC-280","280","Drug 20 mg",2,"Drug 20 mg",2,2025-01-01,2025-03-26,"Y",5,5,"Nausea","NAUSEA","MILD","N","RECOVERED","2025-04-07","2025-04-10",2025-04-07,2025-04-10,97,100,"FOLLOW-UP","Y","AE","AESEQ",5
"ABC101","ABC-281","281","Drug 10 mg",1,"Drug 10 mg",1,2025-01-01,2025-03-26,"Y",1,1,"Nausea","NAUSEA","MILD","N","RECOVERING","2025-03-19","2025-03-25",2025-03-19,2025-03-25,78,84,"TREATMENT","Y","AE","AESEQ",1
"ABC101","ABC-281","281","Drug 10 mg",1,"Drug 10 mg",1,2025-01-01,2025-03-26,"Y",2,2,"Headache","HEADACHE","MILD","N","RECOVERED","2025-02-08","2025-02-10",2025-02-08,2025-02-10,39,41,"TREATMENT","Y","AE","AESEQ",2
"ABC101","ABC-282","282","Drug 10 mg",1,"Drug 10 mg",1,2025-01-01,2025-03-26,"Y",1,1,"Fatigue","FATIGUE","SEVERE","N","RECOVERED","2025-01-29","2025-02-09",2025-01-29,2025-02-09,29,40,"TREATMENT","Y","AE","AESEQ",1
"ABC101","ABC-282","282","Drug 10 mg",1,"Drug 10 mg",1,2025-01-01,2025-03-26,"Y",2,2,"Headache","HEADACHE","MILD","N","RECOVERED","2025-04-14","2025-04-22",2025-04-14,2025-04-22,104,112,"FOLLOW-UP","Y","AE","AESEQ",2
"ABC101","ABC-282","282","Drug 10 mg",1,"Drug 10 mg",1,2025-01-01,2025-03-26,"Y",3,3,"Abdominal Pain","ABDOMINAL PAIN","MILD","N","RECOVERING","2025-06-03","2025-06-04",2025-06-03,2025-06-04,154,155,"FOLLOW-UP","","AE","AESEQ",3
"ABC101","ABC-283","283","Drug 20 mg",2,"Drug 20 mg",2,2025-01-01,2025-03-26,"Y",1,1,"Abdominal Pain","ABDOMINAL PAIN","MODERATE","N","RECOVERED","2025-05-23","2025-06-05",2025-05-23,2025-06-05,143,156,"FOLLOW-UP","","AE","AESEQ",1
"ABC101","ABC-283","283","Drug 20 mg",2,"Drug 20 mg",2,2025-01-01,2025-03-26,"Y",2,2,"Fatigue","FATIGUE","MILD","N","RECOVERED","2025-06-04","2025-06-08",2025-06-04,2025-06-08,155,159,"FOLLOW-UP","","AE","AESEQ",2
"ABC101","ABC-284","284","Placebo",0,"Placebo",0,2025-01-01,2025-03-26,"Y",1,1,"Injection Site Reaction","INJECTION SITE REACTION","MODERATE","N","RECOVERED","2025-04-21","2025-04-27",2025-04-21,2025-04-27,111,117,"FOLLOW-UP","Y","AE","AESEQ",1
"ABC101","ABC-285","285","Placebo",0,"Placebo",0,2025-01-01,2025-03-26,"Y",1,1,"Upper Respiratory Infection","UPPER RESPIRATORY INFECTION","SEVERE","N","RECOVERED","2025-02-25","2025-02-27",2025-02-25,2025-02-27,56,58,"TREATMENT","Y","AE","AESEQ",1
"ABC101","ABC-285","285","Placebo",0,"Placebo",0,2025-01-01,2025-03-26,"Y",2,2,"Nausea","NAUSEA","MILD","N","RECOVERED","2025-04-24","2025-04-29",2025-04-24,2025-04-29,114,119,"FOLLOW-UP","Y","AE","AESEQ",2
"ABC101","ABC-285","285","Placebo",0,"Placebo",0,2025-01-01,2025-03-26,"Y",3,3,"Dizziness","DIZZINESS","MILD","N","RECOVERED","2025-03-18","2025-03-23",2025-03-18,2025-03-23,77,82,"TREATMENT","Y","AE","AESEQ",3
"ABC101","ABC-286","286","Drug 20 mg",2,"Drug 20 mg",2,2025-01-01,2025-03-26,"Y",1,1,"Upper Respiratory Infection","UPPER RESPIRATORY INFECTION","MILD","N","RECOVERED","2025-03-05","2025-03-15",2025-03-05,2025-03-15,64,74,"TREATMENT","Y","AE","AESEQ",1
"ABC101","ABC-286","286","Drug 20 mg",2,"Drug 20 mg",2,2025-01-01,2025-03-26,"Y",2,2,"Diarrhea","DIARRHEA","MILD","N","RECOVERED","2025-06-28","2025-07-05",2025-06-28,2025-07-05,179,186,"FOLLOW-UP","","AE","AESEQ",2
"ABC101","ABC-287","287","Drug 20 mg",2,"Drug 20 mg",2,2025-01-01,2025-03-26,"Y",1,1,"Diarrhea","DIARRHEA","MODERATE","N","RECOVERED","2025-05-26","2025-06-03",2025-05-26,2025-06-03,146,154,"FOLLOW-UP","","AE","AESEQ",1
"ABC101","ABC-287","287","Drug 20 mg",2,"Drug 20 mg",2,2025-01-01,2025-03-26,"Y",2,2,"Fatigue","FATIGUE","MODERATE","N","RECOVERED","2025-05-15","2025-05-22",2025-05-15,2025-05-22,135,142,"FOLLOW-UP","","AE","AESEQ",2
"ABC101","ABC-288","288","Drug 10 mg",1,"Drug 10 mg",1,2025-01-01,2025-03-26,"Y",1,1,"Injection Site Reaction","INJECTION SITE REACTION","MILD","N","RECOVERED","2025-01-23","2025-01-24",2025-01-23,2025-01-24,23,24,"TREATMENT","Y","AE","AESEQ",1
"ABC101","ABC-288","288","Drug 10 mg",1,"Drug 10 mg",1,2025-01-01,2025-03-26,"Y",2,2,"Upper Respiratory Infection","UPPER RESPIRATORY INFECTION","MILD","N","RECOVERED","2025-05-25","2025-05-31",2025-05-25,2025-05-31,145,151,"FOLLOW-UP","","AE","AESEQ",2
"ABC101","ABC-289","289","Drug 20 mg",2,"Drug 20 mg",2,2025-01-01,2025-03-26,"Y",1,1,"Injection Site Reaction","INJECTION SITE REACTION","MILD","N","RECOVERED","2025-02-15","2025-02-26",2025-02-15,2025-02-26,46,57,"TREATMENT","Y","AE","AESEQ",1
"ABC101","ABC-289","289","Drug 20 mg",2,"Drug 20 mg",2,2025-01-01,2025-03-26,"Y",2,2,"Upper Respiratory Infection","UPPER RESPIRATORY INFECTION","MILD","N","RECOVERED","2025-01-28","2025-02-11",2025-01-28,2025-02-11,28,42,"TREATMENT","Y","AE","AESEQ",2
"ABC101","ABC-290","290","Drug 20 mg",2,"Drug 20 mg",2,2025-01-01,2025-03-26,"Y",1,1,"Injection Site Reaction","INJECTION SITE REACTION","MODERATE","N","RECOVERED","2025-02-05","2025-02-17",2025-02-05,2025-02-17,36,48,"TREATMENT","Y","AE","AESEQ",1
"ABC101","ABC-290","290","Drug 20 mg",2,"Drug 20 mg",2,2025-01-01,2025-03-26,"Y",2,2,"Diarrhea","DIARRHEA","MODERATE","N","RECOVERING","2025-05-16","2025-05-25",2025-05-16,2025-05-25,136,145,"FOLLOW-UP","","AE","AESEQ",2
"ABC101","ABC-290","290","Drug 20 mg",2,"Drug 20 mg",2,2025-01-01,2025-03-26,"Y",3,3,"Dizziness","DIZZINESS","MODERATE","N","RECOVERING","2025-06-21","2025-06-23",2025-06-21,2025-06-23,172,174,"FOLLOW-UP","","AE","AESEQ",3
"ABC101","ABC-290","290","Drug 20 mg",2,"Drug 20 mg",2,2025-01-01,2025-03-26,"Y",4,4,"Dizziness","DIZZINESS","MILD","N","RECOVERED","2025-03-16","2025-03-24",2025-03-16,2025-03-24,75,83,"TREATMENT","Y","AE","AESEQ",4
"ABC101","ABC-291","291","Drug 20 mg",2,"Drug 20 mg",2,2025-01-01,2025-03-26,"Y",1,1,"Nausea","NAUSEA","MODERATE","Y","RECOVERING","2025-03-01","2025-03-14",2025-03-01,2025-03-14,60,73,"TREATMENT","Y","AE","AESEQ",1
"ABC101","ABC-291","291","Drug 20 mg",2,"Drug 20 mg",2,2025-01-01,2025-03-26,"Y",2,2,"Diarrhea","DIARRHEA","MILD","N","RECOVERED","2025-03-24","2025-04-05",2025-03-24,2025-04-05,83,95,"TREATMENT","Y","AE","AESEQ",2
"ABC101","ABC-292","292","Placebo",0,"Placebo",0,2025-01-01,2025-03-26,"Y",1,1,"Dizziness","DIZZINESS","MILD","N","RECOVERED","2025-03-24","2025-03-31",2025-03-24,2025-03-31,83,90,"TREATMENT","Y","AE","AESEQ",1
"ABC101","ABC-293","293","Placebo",0,"Placebo",0,2025-01-01,2025-03-26,"Y",1,1,"Upper Respiratory Infection","UPPER RESPIRATORY INFECTION","MILD","N","RECOVERING","2025-01-23","2025-02-03",2025-01-23,2025-02-03,23,34,"TREATMENT","Y","AE","AESEQ",1
"ABC101","ABC-294","294","Drug 20 mg",2,"Drug 20 mg",2,2025-01-01,2025-03-26,"Y",1,1,"Injection Site Reaction","INJECTION SITE REACTION","MILD","N","RECOVERED","2025-04-29","2025-05-12",2025-04-29,2025-05-12,119,132,"FOLLOW-UP","","AE","AESEQ",1
"ABC101","ABC-294","294","Drug 20 mg",2,"Drug 20 mg",2,2025-01-01,2025-03-26,"Y",2,2,"Fatigue","FATIGUE","MILD","N","RECOVERED","2025-05-07","2025-05-08",2025-05-07,2025-05-08,127,128,"FOLLOW-UP","","AE","AESEQ",2
"ABC101","ABC-295","295","Placebo",0,"Placebo",0,2025-01-01,2025-03-26,"Y",1,1,"Diarrhea","DIARRHEA","MODERATE","N","RECOVERING","2025-04-11","2025-04-13",2025-04-11,2025-04-13,101,103,"FOLLOW-UP","Y","AE","AESEQ",1
"ABC101","ABC-296","296","Placebo",0,"Placebo",0,2025-01-01,2025-03-26,"Y",1,1,"Dizziness","DIZZINESS","MODERATE","N","RECOVERED","2025-04-14","2025-04-27",2025-04-14,2025-04-27,104,117,"FOLLOW-UP","Y","AE","AESEQ",1
"ABC101","ABC-296","296","Placebo",0,"Placebo",0,2025-01-01,2025-03-26,"Y",2,2,"Fatigue","FATIGUE","MILD","N","RECOVERING","2025-01-23","2025-01-26",2025-01-23,2025-01-26,23,26,"TREATMENT","Y","AE","AESEQ",2
"ABC101","ABC-296","296","Placebo",0,"Placebo",0,2025-01-01,2025-03-26,"Y",3,3,"Upper Respiratory Infection","UPPER RESPIRATORY INFECTION","MODERATE","N","RECOVERED","2025-02-21","2025-02-24",2025-02-21,2025-02-24,52,55,"TREATMENT","Y","AE","AESEQ",3
"ABC101","ABC-296","296","Placebo",0,"Placebo",0,2025-01-01,2025-03-26,"Y",4,4,"Upper Respiratory Infection","UPPER RESPIRATORY INFECTION","MILD","N","RECOVERED","2025-02-20","2025-02-23",2025-02-20,2025-02-23,51,54,"TREATMENT","Y","AE","AESEQ",4
"ABC101","ABC-297","297","Drug 20 mg",2,"Drug 20 mg",2,2025-01-01,2025-03-26,"Y",1,1,"Abdominal Pain","ABDOMINAL PAIN","MILD","N","RECOVERED","2025-03-25","2025-04-02",2025-03-25,2025-04-02,84,92,"TREATMENT","Y","AE","AESEQ",1
"ABC101","ABC-297","297","Drug 20 mg",2,"Drug 20 mg",2,2025-01-01,2025-03-26,"Y",2,2,"Dizziness","DIZZINESS","MILD","N","RECOVERING","2025-05-20","2025-05-22",2025-05-20,2025-05-22,140,142,"FOLLOW-UP","","AE","AESEQ",2
"ABC101","ABC-299","299","Drug 10 mg",1,"Drug 10 mg",1,2025-01-01,2025-03-26,"Y",1,1,"Nausea","NAUSEA","MILD","N","RECOVERED","2025-01-05","2025-01-09",2025-01-05,2025-01-09,5,9,"TREATMENT","Y","AE","AESEQ",1
"ABC101","ABC-301","301","Drug 10 mg",1,"Drug 10 mg",1,2025-01-01,2025-03-26,"Y",1,1,"Abdominal Pain","ABDOMINAL PAIN","MODERATE","N","RECOVERING","2025-06-07","2025-06-13",2025-06-07,2025-06-13,158,164,"FOLLOW-UP","","AE","AESEQ",1
"ABC101","ABC-301","301","Drug 10 mg",1,"Drug 10 mg",1,2025-01-01,2025-03-26,"Y",2,2,"Injection Site Reaction","INJECTION SITE REACTION","MODERATE","N","RECOVERING","2025-03-29","2025-03-30",2025-03-29,2025-03-30,88,89,"FOLLOW-UP","Y","AE","AESEQ",2
"ABC101","ABC-302","302","Drug 20 mg",2,"Drug 20 mg",2,2025-01-01,2025-03-26,"Y",1,1,"Injection Site Reaction","INJECTION SITE REACTION","MODERATE","N","RECOVERED","2025-02-03","2025-02-14",2025-02-03,2025-02-14,34,45,"TREATMENT","Y","AE","AESEQ",1
"ABC101","ABC-302","302","Drug 20 mg",2,"Drug 20 mg",2,2025-01-01,2025-03-26,"Y",2,2,"Headache","HEADACHE","MILD","N","RECOVERED","2025-05-28","2025-05-31",2025-05-28,2025-05-31,148,151,"FOLLOW-UP","","AE","AESEQ",2
"ABC101","ABC-302","302","Drug 20 mg",2,"Drug 20 mg",2,2025-01-01,2025-03-26,"Y",3,3,"Diarrhea","DIARRHEA","MILD","N","RECOVERED","2025-06-01","2025-06-02",2025-06-01,2025-06-02,152,153,"FOLLOW-UP","","AE","AESEQ",3
"ABC101","ABC-303","303","Placebo",0,"Placebo",0,2025-01-01,2025-03-26,"Y",1,1,"Upper Respiratory Infection","UPPER RESPIRATORY INFECTION","MILD","N","RECOVERED","2025-02-06","2025-02-08",2025-02-06,2025-02-08,37,39,"TREATMENT","Y","AE","AESEQ",1
"ABC101","ABC-303","303","Placebo",0,"Placebo",0,2025-01-01,2025-03-26,"Y",2,2,"Headache","HEADACHE","MODERATE","N","RECOVERED","2025-01-02","2025-01-03",2025-01-02,2025-01-03,2,3,"TREATMENT","Y","AE","AESEQ",2
"ABC101","ABC-303","303","Placebo",0,"Placebo",0,2025-01-01,2025-03-26,"Y",3,3,"Dizziness","DIZZINESS","MILD","N","RECOVERED","2025-03-14","2025-03-18",2025-03-14,2025-03-18,73,77,"TREATMENT","Y","AE","AESEQ",3
"ABC101","ABC-305","305","Placebo",0,"Placebo",0,2025-01-01,2025-03-26,"Y",1,1,"Diarrhea","DIARRHEA","MODERATE","N","RECOVERED","2025-01-04","2025-01-18",2025-01-04,2025-01-18,4,18,"TREATMENT","Y","AE","AESEQ",1
"ABC101","ABC-306","306","Placebo",0,"Placebo",0,2025-01-01,2025-03-26,"Y",1,1,"Dizziness","DIZZINESS","MODERATE","N","RECOVERING","2025-03-07","2025-03-10",2025-03-07,2025-03-10,66,69,"TREATMENT","Y","AE","AESEQ",1
"ABC101","ABC-307","307","Placebo",0,"Placebo",0,2025-01-01,2025-03-26,"Y",1,1,"Upper Respiratory Infection","UPPER RESPIRATORY INFECTION","MILD","N","RECOVERED","2025-04-17","2025-04-26",2025-04-17,2025-04-26,107,116,"FOLLOW-UP","Y","AE","AESEQ",1
"ABC101","ABC-308","308","Placebo",0,"Placebo",0,2025-01-01,2025-03-26,"Y",1,1,"Nausea","NAUSEA","MILD","N","RECOVERED","2025-02-12","2025-02-20",2025-02-12,2025-02-20,43,51,"TREATMENT","Y","AE","AESEQ",1
"ABC101","ABC-309","309","Drug 10 mg",1,"Drug 10 mg",1,2025-01-01,2025-03-26,"Y",1,1,"Nausea","NAUSEA","MODERATE","N","RECOVERED","2025-02-21","2025-03-01",2025-02-21,2025-03-01,52,60,"TREATMENT","Y","AE","AESEQ",1
"ABC101","ABC-310","310","Drug 10 mg",1,"Drug 10 mg",1,2025-01-01,2025-03-26,"Y",1,1,"Upper Respiratory Infection","UPPER RESPIRATORY INFECTION","MODERATE","N","RECOVERED","2025-03-01","2025-03-09",2025-03-01,2025-03-09,60,68,"TREATMENT","Y","AE","AESEQ",1
"ABC101","ABC-312","312","Drug 20 mg",2,"Drug 20 mg",2,2025-01-01,2025-03-26,"Y",1,1,"Headache","HEADACHE","MILD","N","RECOVERED","2025-03-21","2025-03-29",2025-03-21,2025-03-29,80,88,"TREATMENT","Y","AE","AESEQ",1
"ABC101","ABC-312","312","Drug 20 mg",2,"Drug 20 mg",2,2025-01-01,2025-03-26,"Y",2,2,"Fatigue","FATIGUE","MILD","N","RECOVERED","2025-04-03","2025-04-15",2025-04-03,2025-04-15,93,105,"FOLLOW-UP","Y","AE","AESEQ",2
"ABC101","ABC-312","312","Drug 20 mg",2,"Drug 20 mg",2,2025-01-01,2025-03-26,"Y",3,3,"Nausea","NAUSEA","MODERATE","N","RECOVERED","2025-01-27","2025-02-08",2025-01-27,2025-02-08,27,39,"TREATMENT","Y","AE","AESEQ",3
"ABC101","ABC-312","312","Drug 20 mg",2,"Drug 20 mg",2,2025-01-01,2025-03-26,"Y",4,4,"Upper Respiratory Infection","UPPER RESPIRATORY INFECTION","MODERATE","N","RECOVERING","2025-05-17","2025-05-21",2025-05-17,2025-05-21,137,141,"FOLLOW-UP","","AE","AESEQ",4
"ABC101","ABC-313","313","Drug 10 mg",1,"Drug 10 mg",1,2025-01-01,2025-03-26,"Y",1,1,"Headache","HEADACHE","MODERATE","N","RECOVERED","2025-01-29","2025-02-10",2025-01-29,2025-02-10,29,41,"TREATMENT","Y","AE","AESEQ",1
"ABC101","ABC-316","316","Placebo",0,"Placebo",0,2025-01-01,2025-03-26,"Y",1,1,"Nausea","NAUSEA","MILD","N","RECOVERED","2025-05-16","2025-05-23",2025-05-16,2025-05-23,136,143,"FOLLOW-UP","","AE","AESEQ",1
"ABC101","ABC-316","316","Placebo",0,"Placebo",0,2025-01-01,2025-03-26,"Y",2,2,"Abdominal Pain","ABDOMINAL PAIN","MODERATE","N","RECOVERED","2025-06-18","2025-06-20",2025-06-18,2025-06-20,169,171,"FOLLOW-UP","","AE","AESEQ",2
"ABC101","ABC-318","318","Drug 20 mg",2,"Drug 20 mg",2,2025-01-01,2025-03-26,"Y",1,1,"Nausea","NAUSEA","MODERATE","N","RECOVERED","2025-03-17","2025-03-26",2025-03-17,2025-03-26,76,85,"TREATMENT","Y","AE","AESEQ",1
"ABC101","ABC-319","319","Placebo",0,"Placebo",0,2025-01-01,2025-03-26,"Y",1,1,"Nausea","NAUSEA","MODERATE","N","RECOVERED","2025-04-30","2025-05-09",2025-04-30,2025-05-09,120,129,"FOLLOW-UP","","AE","AESEQ",1
"ABC101","ABC-319","319","Placebo",0,"Placebo",0,2025-01-01,2025-03-26,"Y",2,2,"Diarrhea","DIARRHEA","MODERATE","N","RECOVERED","2025-01-05","2025-01-08",2025-01-05,2025-01-08,5,8,"TREATMENT","Y","AE","AESEQ",2
"ABC101","ABC-320","320","Drug 20 mg",2,"Drug 20 mg",2,2025-01-01,2025-03-26,"Y",1,1,"Fatigue","FATIGUE","MILD","N","RECOVERING","2025-01-16","2025-01-24",2025-01-16,2025-01-24,16,24,"TREATMENT","Y","AE","AESEQ",1
"ABC101","ABC-320","320","Drug 20 mg",2,"Drug 20 mg",2,2025-01-01,2025-03-26,"Y",2,2,"Nausea","NAUSEA","MILD","N","RECOVERED","2025-04-13","2025-04-25",2025-04-13,2025-04-25,103,115,"FOLLOW-UP","Y","AE","AESEQ",2
"ABC101","ABC-321","321","Drug 20 mg",2,"Drug 20 mg",2,2025-01-01,2025-03-26,"Y",1,1,"Dizziness","DIZZINESS","MODERATE","N","RECOVERING","2025-05-13","2025-05-16",2025-05-13,2025-05-16,133,136,"FOLLOW-UP","","AE","AESEQ",1
"ABC101","ABC-321","321","Drug 20 mg",2,"Drug 20 mg",2,2025-01-01,2025-03-26,"Y",2,2,"Diarrhea","DIARRHEA","MILD","N","RECOVERED","2025-06-24","2025-06-27",2025-06-24,2025-06-27,175,178,"FOLLOW-UP","","AE","AESEQ",2
"ABC101","ABC-322","322","Drug 20 mg",2,"Drug 20 mg",2,2025-01-01,2025-03-26,"Y",1,1,"Diarrhea","DIARRHEA","MILD","N","RECOVERING","2025-02-08","2025-02-10",2025-02-08,2025-02-10,39,41,"TREATMENT","Y","AE","AESEQ",1
"ABC101","ABC-323","323","Placebo",0,"Placebo",0,2025-01-01,2025-03-26,"Y",1,1,"Dizziness","DIZZINESS","MODERATE","N","RECOVERED","2025-05-26","2025-06-09",2025-05-26,2025-06-09,146,160,"FOLLOW-UP","","AE","AESEQ",1
"ABC101","ABC-324","324","Drug 20 mg",2,"Drug 20 mg",2,2025-01-01,2025-03-26,"Y",1,1,"Diarrhea","DIARRHEA","MODERATE","N","RECOVERED","2025-03-26","2025-03-30",2025-03-26,2025-03-30,85,89,"TREATMENT","Y","AE","AESEQ",1
"ABC101","ABC-324","324","Drug 20 mg",2,"Drug 20 mg",2,2025-01-01,2025-03-26,"Y",2,2,"Nausea","NAUSEA","MILD","N","RECOVERING","2025-02-12","2025-02-23",2025-02-12,2025-02-23,43,54,"TREATMENT","Y","AE","AESEQ",2
"ABC101","ABC-324","324","Drug 20 mg",2,"Drug 20 mg",2,2025-01-01,2025-03-26,"Y",3,3,"Upper Respiratory Infection","UPPER RESPIRATORY INFECTION","MODERATE","N","RECOVERED","2025-04-13","2025-04-16",2025-04-13,2025-04-16,103,106,"FOLLOW-UP","Y","AE","AESEQ",3
"ABC101","ABC-324","324","Drug 20 mg",2,"Drug 20 mg",2,2025-01-01,2025-03-26,"Y",4,4,"Abdominal Pain","ABDOMINAL PAIN","MILD","N","NOT RECOVERED","2025-05-23","2025-05-24",2025-05-23,2025-05-24,143,144,"FOLLOW-UP","","AE","AESEQ",4
"ABC101","ABC-325","325","Drug 10 mg",1,"Drug 10 mg",1,2025-01-01,2025-03-26,"Y",1,1,"Nausea","NAUSEA","MILD","N","RECOVERED","2025-03-09","2025-03-14",2025-03-09,2025-03-14,68,73,"TREATMENT","Y","AE","AESEQ",1
"ABC101","ABC-325","325","Drug 10 mg",1,"Drug 10 mg",1,2025-01-01,2025-03-26,"Y",2,2,"Fatigue","FATIGUE","MILD","N","RECOVERING","2025-06-11","2025-06-12",2025-06-11,2025-06-12,162,163,"FOLLOW-UP","","AE","AESEQ",2
"ABC101","ABC-325","325","Drug 10 mg",1,"Drug 10 mg",1,2025-01-01,2025-03-26,"Y",3,3,"Injection Site Reaction","INJECTION SITE REACTION","MILD","N","RECOVERING","2025-06-10","2025-06-17",2025-06-10,2025-06-17,161,168,"FOLLOW-UP","","AE","AESEQ",3
"ABC101","ABC-326","326","Placebo",0,"Placebo",0,2025-01-01,2025-03-26,"Y",1,1,"Abdominal Pain","ABDOMINAL PAIN","MILD","N","RECOVERED","2025-02-23","2025-02-27",2025-02-23,2025-02-27,54,58,"TREATMENT","Y","AE","AESEQ",1
"ABC101","ABC-327","327","Drug 20 mg",2,"Drug 20 mg",2,2025-01-01,2025-03-26,"Y",1,1,"Nausea","NAUSEA","MILD","Y","RECOVERED","2025-06-01","2025-06-10",2025-06-01,2025-06-10,152,161,"FOLLOW-UP","","AE","AESEQ",1
"ABC101","ABC-327","327","Drug 20 mg",2,"Drug 20 mg",2,2025-01-01,2025-03-26,"Y",2,2,"Abdominal Pain","ABDOMINAL PAIN","MILD","N","RECOVERING","2025-06-11","2025-06-24",2025-06-11,2025-06-24,162,175,"FOLLOW-UP","","AE","AESEQ",2
"ABC101","ABC-327","327","Drug 20 mg",2,"Drug 20 mg",2,2025-01-01,2025-03-26,"Y",3,3,"Diarrhea","DIARRHEA","MILD","N","NOT RECOVERED","2025-02-23","2025-03-09",2025-02-23,2025-03-09,54,68,"TREATMENT","Y","AE","AESEQ",3
"ABC101","ABC-327","327","Drug 20 mg",2,"Drug 20 mg",2,2025-01-01,2025-03-26,"Y",4,4,"Dizziness","DIZZINESS","SEVERE","N","RECOVERED","2025-03-19","2025-03-26",2025-03-19,2025-03-26,78,85,"TREATMENT","Y","AE","AESEQ",4
"ABC101","ABC-327","327","Drug 20 mg",2,"Drug 20 mg",2,2025-01-01,2025-03-26,"Y",5,5,"Headache","HEADACHE","MILD","N","RECOVERED","2025-04-26","2025-05-03",2025-04-26,2025-05-03,116,123,"FOLLOW-UP","","AE","AESEQ",5
"ABC101","ABC-328","328","Drug 10 mg",1,"Drug 10 mg",1,2025-01-01,2025-03-26,"Y",1,1,"Injection Site Reaction","INJECTION SITE REACTION","MODERATE","N","RECOVERED","2025-02-20","2025-03-06",2025-02-20,2025-03-06,51,65,"TREATMENT","Y","AE","AESEQ",1
"ABC101","ABC-329","329","Drug 10 mg",1,"Drug 10 mg",1,2025-01-01,2025-03-26,"Y",1,1,"Nausea","NAUSEA","MILD","N","RECOVERED","2025-03-16","2025-03-19",2025-03-16,2025-03-19,75,78,"TREATMENT","Y","AE","AESEQ",1
"ABC101","ABC-329","329","Drug 10 mg",1,"Drug 10 mg",1,2025-01-01,2025-03-26,"Y",2,2,"Upper Respiratory Infection","UPPER RESPIRATORY INFECTION","MILD","N","RECOVERING","2025-01-24","2025-01-29",2025-01-24,2025-01-29,24,29,"TREATMENT","Y","AE","AESEQ",2
"ABC101","ABC-329","329","Drug 10 mg",1,"Drug 10 mg",1,2025-01-01,2025-03-26,"Y",3,3,"Headache","HEADACHE","MILD","N","NOT RECOVERED","2025-05-19","2025-05-20",2025-05-19,2025-05-20,139,140,"FOLLOW-UP","","AE","AESEQ",3
"ABC101","ABC-329","329","Drug 10 mg",1,"Drug 10 mg",1,2025-01-01,2025-03-26,"Y",4,4,"Nausea","NAUSEA","MODERATE","Y","RECOVERED","2025-04-04","2025-04-10",2025-04-04,2025-04-10,94,100,"FOLLOW-UP","Y","AE","AESEQ",4
"ABC101","ABC-330","330","Drug 20 mg",2,"Drug 20 mg",2,2025-01-01,2025-03-26,"Y",1,1,"Fatigue","FATIGUE","MODERATE","N","RECOVERED","2025-03-26","2025-04-08",2025-03-26,2025-04-08,85,98,"TREATMENT","Y","AE","AESEQ",1
"ABC101","ABC-331","331","Drug 20 mg",2,"Drug 20 mg",2,2025-01-01,2025-03-26,"Y",1,1,"Nausea","NAUSEA","MILD","N","RECOVERED","2025-01-20","2025-01-30",2025-01-20,2025-01-30,20,30,"TREATMENT","Y","AE","AESEQ",1
"ABC101","ABC-331","331","Drug 20 mg",2,"Drug 20 mg",2,2025-01-01,2025-03-26,"Y",2,2,"Diarrhea","DIARRHEA","MODERATE","N","RECOVERED","2025-05-28","2025-06-09",2025-05-28,2025-06-09,148,160,"FOLLOW-UP","","AE","AESEQ",2
"ABC101","ABC-331","331","Drug 20 mg",2,"Drug 20 mg",2,2025-01-01,2025-03-26,"Y",3,3,"Diarrhea","DIARRHEA","MILD","N","RECOVERED","2025-02-11","2025-02-13",2025-02-11,2025-02-13,42,44,"TREATMENT","Y","AE","AESEQ",3
"ABC101","ABC-331","331","Drug 20 mg",2,"Drug 20 mg",2,2025-01-01,2025-03-26,"Y",4,4,"Injection Site Reaction","INJECTION SITE REACTION","MILD","N","RECOVERED","2025-05-06","2025-05-16",2025-05-06,2025-05-16,126,136,"FOLLOW-UP","","AE","AESEQ",4
"ABC101","ABC-333","333","Placebo",0,"Placebo",0,2025-01-01,2025-03-26,"Y",1,1,"Injection Site Reaction","INJECTION SITE REACTION","MILD","N","RECOVERED","2025-04-24","2025-04-28",2025-04-24,2025-04-28,114,118,"FOLLOW-UP","Y","AE","AESEQ",1
"ABC101","ABC-334","334","Placebo",0,"Placebo",0,2025-01-01,2025-03-26,"Y",1,1,"Headache","HEADACHE","MILD","N","RECOVERING","2025-05-22","2025-06-05",2025-05-22,2025-06-05,142,156,"FOLLOW-UP","","AE","AESEQ",1
"ABC101","ABC-335","335","Drug 20 mg",2,"Drug 20 mg",2,2025-01-01,2025-03-26,"Y",1,1,"Upper Respiratory Infection","UPPER RESPIRATORY INFECTION","MILD","N","RECOVERED","2025-06-22","2025-06-26",2025-06-22,2025-06-26,173,177,"FOLLOW-UP","","AE","AESEQ",1
"ABC101","ABC-335","335","Drug 20 mg",2,"Drug 20 mg",2,2025-01-01,2025-03-26,"Y",2,2,"Diarrhea","DIARRHEA","MILD","N","RECOVERING","2025-01-24","2025-01-26",2025-01-24,2025-01-26,24,26,"TREATMENT","Y","AE","AESEQ",2
"ABC101","ABC-335","335","Drug 20 mg",2,"Drug 20 mg",2,2025-01-01,2025-03-26,"Y",3,3,"Abdominal Pain","ABDOMINAL PAIN","MILD","N","RECOVERED","2025-04-08","2025-04-13",2025-04-08,2025-04-13,98,103,"FOLLOW-UP","Y","AE","AESEQ",3
"ABC101","ABC-336","336","Drug 20 mg",2,"Drug 20 mg",2,2025-01-01,2025-03-26,"Y",1,1,"Diarrhea","DIARRHEA","MODERATE","N","RECOVERING","2025-05-08","2025-05-18",2025-05-08,2025-05-18,128,138,"FOLLOW-UP","","AE","AESEQ",1
"ABC101","ABC-337","337","Placebo",0,"Placebo",0,2025-01-01,2025-03-26,"Y",1,1,"Diarrhea","DIARRHEA","MILD","N","RECOVERING","2025-05-22","2025-05-26",2025-05-22,2025-05-26,142,146,"FOLLOW-UP","","AE","AESEQ",1
"ABC101","ABC-337","337","Placebo",0,"Placebo",0,2025-01-01,2025-03-26,"Y",2,2,"Abdominal Pain","ABDOMINAL PAIN","MILD","N","RECOVERED","2025-06-06","2025-06-07",2025-06-06,2025-06-07,157,158,"FOLLOW-UP","","AE","AESEQ",2
"ABC101","ABC-338","338","Drug 20 mg",2,"Drug 20 mg",2,2025-01-01,2025-03-26,"Y",1,1,"Upper Respiratory Infection","UPPER RESPIRATORY INFECTION","MILD","N","RECOVERING","2025-01-17","2025-01-28",2025-01-17,2025-01-28,17,28,"TREATMENT","Y","AE","AESEQ",1
"ABC101","ABC-338","338","Drug 20 mg",2,"Drug 20 mg",2,2025-01-01,2025-03-26,"Y",2,2,"Abdominal Pain","ABDOMINAL PAIN","MODERATE","N","RECOVERING","2025-02-27","2025-03-09",2025-02-27,2025-03-09,58,68,"TREATMENT","Y","AE","AESEQ",2
"ABC101","ABC-339","339","Drug 10 mg",1,"Drug 10 mg",1,2025-01-01,2025-03-26,"Y",1,1,"Injection Site Reaction","INJECTION SITE REACTION","MODERATE","N","RECOVERED","2025-03-28","2025-04-04",2025-03-28,2025-04-04,87,94,"FOLLOW-UP","Y","AE","AESEQ",1
"ABC101","ABC-339","339","Drug 10 mg",1,"Drug 10 mg",1,2025-01-01,2025-03-26,"Y",2,2,"Headache","HEADACHE","MILD","N","RECOVERED","2025-05-11","2025-05-23",2025-05-11,2025-05-23,131,143,"FOLLOW-UP","","AE","AESEQ",2
"ABC101","ABC-339","339","Drug 10 mg",1,"Drug 10 mg",1,2025-01-01,2025-03-26,"Y",3,3,"Headache","HEADACHE","MODERATE","N","RECOVERED","2025-05-10","2025-05-14",2025-05-10,2025-05-14,130,134,"FOLLOW-UP","","AE","AESEQ",3
"ABC101","ABC-340","340","Drug 20 mg",2,"Drug 20 mg",2,2025-01-01,2025-03-26,"Y",1,1,"Nausea","NAUSEA","MILD","N","RECOVERING","2025-02-28","2025-03-13",2025-02-28,2025-03-13,59,72,"TREATMENT","Y","AE","AESEQ",1
"ABC101","ABC-340","340","Drug 20 mg",2,"Drug 20 mg",2,2025-01-01,2025-03-26,"Y",2,2,"Abdominal Pain","ABDOMINAL PAIN","MILD","N","RECOVERED","2025-06-18","2025-07-02",2025-06-18,2025-07-02,169,183,"FOLLOW-UP","","AE","AESEQ",2
"ABC101","ABC-341","341","Drug 20 mg",2,"Drug 20 mg",2,2025-01-01,2025-03-26,"Y",1,1,"Injection Site Reaction","INJECTION SITE REACTION","MILD","N","RECOVERED","2025-01-23","2025-02-03",2025-01-23,2025-02-03,23,34,"TREATMENT","Y","AE","AESEQ",1
"ABC101","ABC-341","341","Drug 20 mg",2,"Drug 20 mg",2,2025-01-01,2025-03-26,"Y",2,2,"Fatigue","FATIGUE","MILD","N","RECOVERING","2025-03-21","2025-04-02",2025-03-21,2025-04-02,80,92,"TREATMENT","Y","AE","AESEQ",2
"ABC101","ABC-343","343","Placebo",0,"Placebo",0,2025-01-01,2025-03-26,"Y",1,1,"Upper Respiratory Infection","UPPER RESPIRATORY INFECTION","MILD","N","RECOVERED","2025-06-18","2025-06-25",2025-06-18,2025-06-25,169,176,"FOLLOW-UP","","AE","AESEQ",1
"ABC101","ABC-344","344","Placebo",0,"Placebo",0,2025-01-01,2025-03-26,"Y",1,1,"Nausea","NAUSEA","MILD","N","RECOVERED","2025-02-07","2025-02-17",2025-02-07,2025-02-17,38,48,"TREATMENT","Y","AE","AESEQ",1
"ABC101","ABC-344","344","Placebo",0,"Placebo",0,2025-01-01,2025-03-26,"Y",2,2,"Abdominal Pain","ABDOMINAL PAIN","MILD","N","RECOVERED","2025-06-08","2025-06-16",2025-06-08,2025-06-16,159,167,"FOLLOW-UP","","AE","AESEQ",2
"ABC101","ABC-345","345","Placebo",0,"Placebo",0,2025-01-01,2025-03-26,"Y",1,1,"Diarrhea","DIARRHEA","MILD","N","RECOVERED","2025-06-05","2025-06-19",2025-06-05,2025-06-19,156,170,"FOLLOW-UP","","AE","AESEQ",1
"ABC101","ABC-346","346","Drug 10 mg",1,"Drug 10 mg",1,2025-01-01,2025-03-26,"Y",1,1,"Upper Respiratory Infection","UPPER RESPIRATORY INFECTION","MILD","N","RECOVERED","2025-06-04","2025-06-05",2025-06-04,2025-06-05,155,156,"FOLLOW-UP","","AE","AESEQ",1
"ABC101","ABC-346","346","Drug 10 mg",1,"Drug 10 mg",1,2025-01-01,2025-03-26,"Y",2,2,"Dizziness","DIZZINESS","SEVERE","N","RECOVERED","2025-05-08","2025-05-11",2025-05-08,2025-05-11,128,131,"FOLLOW-UP","","AE","AESEQ",2
"ABC101","ABC-347","347","Drug 10 mg",1,"Drug 10 mg",1,2025-01-01,2025-03-26,"Y",1,1,"Headache","HEADACHE","MODERATE","N","RECOVERED","2025-04-13","2025-04-21",2025-04-13,2025-04-21,103,111,"FOLLOW-UP","Y","AE","AESEQ",1
"ABC101","ABC-348","348","Drug 20 mg",2,"Drug 20 mg",2,2025-01-01,2025-03-26,"Y",1,1,"Injection Site Reaction","INJECTION SITE REACTION","MILD","N","RECOVERED","2025-03-28","2025-03-30",2025-03-28,2025-03-30,87,89,"FOLLOW-UP","Y","AE","AESEQ",1
"ABC101","ABC-350","350","Drug 10 mg",1,"Drug 10 mg",1,2025-01-01,2025-03-26,"Y",1,1,"Fatigue","FATIGUE","MILD","N","RECOVERED","2025-06-18","2025-06-26",2025-06-18,2025-06-26,169,177,"FOLLOW-UP","","AE","AESEQ",1
"ABC101","ABC-350","350","Drug 10 mg",1,"Drug 10 mg",1,2025-01-01,2025-03-26,"Y",2,2,"Upper Respiratory Infection","UPPER RESPIRATORY INFECTION","MILD","N","RECOVERED","2025-04-17","2025-04-21",2025-04-17,2025-04-21,107,111,"FOLLOW-UP","Y","AE","AESEQ",2
"ABC101","ABC-351","351","Placebo",0,"Placebo",0,2025-01-01,2025-03-26,"Y",1,1,"Injection Site Reaction","INJECTION SITE REACTION","MODERATE","N","RECOVERING","2025-04-22","2025-04-29",2025-04-22,2025-04-29,112,119,"FOLLOW-UP","Y","AE","AESEQ",1
"ABC101","ABC-352","352","Placebo",0,"Placebo",0,2025-01-01,2025-03-26,"Y",1,1,"Abdominal Pain","ABDOMINAL PAIN","MILD","N","RECOVERING","2025-04-03","2025-04-16",2025-04-03,2025-04-16,93,106,"FOLLOW-UP","Y","AE","AESEQ",1
"ABC101","ABC-352","352","Placebo",0,"Placebo",0,2025-01-01,2025-03-26,"Y",2,2,"Nausea","NAUSEA","MILD","N","RECOVERED","2025-05-23","2025-05-31",2025-05-23,2025-05-31,143,151,"FOLLOW-UP","","AE","AESEQ",2
"ABC101","ABC-353","353","Drug 20 mg",2,"Drug 20 mg",2,2025-01-01,2025-03-26,"Y",1,1,"Dizziness","DIZZINESS","MODERATE","N","RECOVERED","2025-03-23","2025-04-01",2025-03-23,2025-04-01,82,91,"TREATMENT","Y","AE","AESEQ",1
"ABC101","ABC-355","355","Placebo",0,"Placebo",0,2025-01-01,2025-03-26,"Y",1,1,"Upper Respiratory Infection","UPPER RESPIRATORY INFECTION","MODERATE","N","RECOVERED","2025-06-06","2025-06-20",2025-06-06,2025-06-20,157,171,"FOLLOW-UP","","AE","AESEQ",1
"ABC101","ABC-355","355","Placebo",0,"Placebo",0,2025-01-01,2025-03-26,"Y",2,2,"Abdominal Pain","ABDOMINAL PAIN","MILD","N","RECOVERED","2025-04-14","2025-04-15",2025-04-14,2025-04-15,104,105,"FOLLOW-UP","Y","AE","AESEQ",2
"ABC101","ABC-355","355","Placebo",0,"Placebo",0,2025-01-01,2025-03-26,"Y",3,3,"Abdominal Pain","ABDOMINAL PAIN","MODERATE","N","RECOVERING","2025-05-05","2025-05-19",2025-05-05,2025-05-19,125,139,"FOLLOW-UP","","AE","AESEQ",3
"ABC101","ABC-357","357","Drug 10 mg",1,"Drug 10 mg",1,2025-01-01,2025-03-26,"Y",1,1,"Fatigue","FATIGUE","MODERATE","N","RECOVERED","2025-01-28","2025-02-04",2025-01-28,2025-02-04,28,35,"TREATMENT","Y","AE","AESEQ",1
"ABC101","ABC-359","359","Placebo",0,"Placebo",0,2025-01-01,2025-03-26,"Y",1,1,"Upper Respiratory Infection","UPPER RESPIRATORY INFECTION","MILD","N","RECOVERED","2025-02-06","2025-02-19",2025-02-06,2025-02-19,37,50,"TREATMENT","Y","AE","AESEQ",1
"ABC101","ABC-360","360","Drug 10 mg",1,"Drug 10 mg",1,2025-01-01,2025-03-26,"Y",1,1,"Fatigue","FATIGUE","MODERATE","N","RECOVERING","2025-05-11","2025-05-17",2025-05-11,2025-05-17,131,137,"FOLLOW-UP","","AE","AESEQ",1
"ABC101","ABC-360","360","Drug 10 mg",1,"Drug 10 mg",1,2025-01-01,2025-03-26,"Y",2,2,"Headache","HEADACHE","MILD","N","RECOVERED","2025-01-17","2025-01-20",2025-01-17,2025-01-20,17,20,"TREATMENT","Y","AE","AESEQ",2
"ABC101","ABC-361","361","Placebo",0,"Placebo",0,2025-01-01,2025-03-26,"Y",1,1,"Headache","HEADACHE","MILD","N","RECOVERED","2025-02-21","2025-03-03",2025-02-21,2025-03-03,52,62,"TREATMENT","Y","AE","AESEQ",1
"ABC101","ABC-361","361","Placebo",0,"Placebo",0,2025-01-01,2025-03-26,"Y",2,2,"Nausea","NAUSEA","MILD","N","RECOVERED","2025-03-11","2025-03-21",2025-03-11,2025-03-21,70,80,"TREATMENT","Y","AE","AESEQ",2
"ABC101","ABC-361","361","Placebo",0,"Placebo",0,2025-01-01,2025-03-26,"Y",3,3,"Injection Site Reaction","INJECTION SITE REACTION","MILD","N","RECOVERED","2025-05-11","2025-05-16",2025-05-11,2025-05-16,131,136,"FOLLOW-UP","","AE","AESEQ",3
"ABC101","ABC-361","361","Placebo",0,"Placebo",0,2025-01-01,2025-03-26,"Y",4,4,"Nausea","NAUSEA","MILD","N","NOT RECOVERED","2025-01-16","2025-01-17",2025-01-16,2025-01-17,16,17,"TREATMENT","Y","AE","AESEQ",4
"ABC101","ABC-362","362","Drug 10 mg",1,"Drug 10 mg",1,2025-01-01,2025-03-26,"Y",1,1,"Upper Respiratory Infection","UPPER RESPIRATORY INFECTION","MODERATE","N","RECOVERED","2025-04-09","2025-04-19",2025-04-09,2025-04-19,99,109,"FOLLOW-UP","Y","AE","AESEQ",1
"ABC101","ABC-362","362","Drug 10 mg",1,"Drug 10 mg",1,2025-01-01,2025-03-26,"Y",2,2,"Upper Respiratory Infection","UPPER RESPIRATORY INFECTION","MILD","N","RECOVERED","2025-04-07","2025-04-20",2025-04-07,2025-04-20,97,110,"FOLLOW-UP","Y","AE","AESEQ",2
"ABC101","ABC-362","362","Drug 10 mg",1,"Drug 10 mg",1,2025-01-01,2025-03-26,"Y",3,3,"Dizziness","DIZZINESS","MILD","N","RECOVERING","2025-01-15","2025-01-26",2025-01-15,2025-01-26,15,26,"TREATMENT","Y","AE","AESEQ",3
"ABC101","ABC-362","362","Drug 10 mg",1,"Drug 10 mg",1,2025-01-01,2025-03-26,"Y",4,4,"Fatigue","FATIGUE","MILD","Y","RECOVERED","2025-05-10","2025-05-15",2025-05-10,2025-05-15,130,135,"FOLLOW-UP","","AE","AESEQ",4
"ABC101","ABC-362","362","Drug 10 mg",1,"Drug 10 mg",1,2025-01-01,2025-03-26,"Y",5,5,"Abdominal Pain","ABDOMINAL PAIN","MILD","N","RECOVERED","2025-01-16","2025-01-24",2025-01-16,2025-01-24,16,24,"TREATMENT","Y","AE","AESEQ",5
"ABC101","ABC-364","364","Drug 10 mg",1,"Drug 10 mg",1,2025-01-01,2025-03-26,"Y",1,1,"Injection Site Reaction","INJECTION SITE REACTION","MODERATE","N","RECOVERED","2025-04-01","2025-04-08",2025-04-01,2025-04-08,91,98,"FOLLOW-UP","Y","AE","AESEQ",1
"ABC101","ABC-364","364","Drug 10 mg",1,"Drug 10 mg",1,2025-01-01,2025-03-26,"Y",2,2,"Injection Site Reaction","INJECTION SITE REACTION","MILD","N","RECOVERED","2025-06-16","2025-06-18",2025-06-16,2025-06-18,167,169,"FOLLOW-UP","","AE","AESEQ",2
"ABC101","ABC-364","364","Drug 10 mg",1,"Drug 10 mg",1,2025-01-01,2025-03-26,"Y",3,3,"Injection Site Reaction","INJECTION SITE REACTION","MILD","Y","RECOVERED","2025-06-09","2025-06-23",2025-06-09,2025-06-23,160,174,"FOLLOW-UP","","AE","AESEQ",3
"ABC101","ABC-365","365","Placebo",0,"Placebo",0,2025-01-01,2025-03-26,"Y",1,1,"Dizziness","DIZZINESS","MILD","N","RECOVERED","2025-06-18","2025-07-02",2025-06-18,2025-07-02,169,183,"FOLLOW-UP","","AE","AESEQ",1
"ABC101","ABC-366","366","Drug 20 mg",2,"Drug 20 mg",2,2025-01-01,2025-03-26,"Y",1,1,"Fatigue","FATIGUE","MODERATE","N","NOT RECOVERED","2025-01-07","2025-01-10",2025-01-07,2025-01-10,7,10,"TREATMENT","Y","AE","AESEQ",1
"ABC101","ABC-367","367","Drug 20 mg",2,"Drug 20 mg",2,2025-01-01,2025-03-26,"Y",1,1,"Diarrhea","DIARRHEA","MILD","N","RECOVERED","2025-05-18","2025-05-21",2025-05-18,2025-05-21,138,141,"FOLLOW-UP","","AE","AESEQ",1
"ABC101","ABC-367","367","Drug 20 mg",2,"Drug 20 mg",2,2025-01-01,2025-03-26,"Y",2,2,"Upper Respiratory Infection","UPPER RESPIRATORY INFECTION","MILD","N","RECOVERED","2025-03-27","2025-04-01",2025-03-27,2025-04-01,86,91,"FOLLOW-UP","Y","AE","AESEQ",2
"ABC101","ABC-368","368","Placebo",0,"Placebo",0,2025-01-01,2025-03-26,"Y",1,1,"Fatigue","FATIGUE","MILD","N","RECOVERED","2025-01-12","2025-01-18",2025-01-12,2025-01-18,12,18,"TREATMENT","Y","AE","AESEQ",1
"ABC101","ABC-368","368","Placebo",0,"Placebo",0,2025-01-01,2025-03-26,"Y",2,2,"Upper Respiratory Infection","UPPER RESPIRATORY INFECTION","MILD","N","RECOVERED","2025-04-05","2025-04-10",2025-04-05,2025-04-10,95,100,"FOLLOW-UP","Y","AE","AESEQ",2
"ABC101","ABC-368","368","Placebo",0,"Placebo",0,2025-01-01,2025-03-26,"Y",3,3,"Abdominal Pain","ABDOMINAL PAIN","MODERATE","N","NOT RECOVERED","2025-03-29","2025-04-10",2025-03-29,2025-04-10,88,100,"FOLLOW-UP","Y","AE","AESEQ",3
"ABC101","ABC-369","369","Drug 10 mg",1,"Drug 10 mg",1,2025-01-01,2025-03-26,"Y",1,1,"Diarrhea","DIARRHEA","MODERATE","N","RECOVERED","2025-04-30","2025-05-03",2025-04-30,2025-05-03,120,123,"FOLLOW-UP","","AE","AESEQ",1
"ABC101","ABC-369","369","Drug 10 mg",1,"Drug 10 mg",1,2025-01-01,2025-03-26,"Y",2,2,"Fatigue","FATIGUE","MODERATE","N","RECOVERING","2025-03-13","2025-03-25",2025-03-13,2025-03-25,72,84,"TREATMENT","Y","AE","AESEQ",2
"ABC101","ABC-369","369","Drug 10 mg",1,"Drug 10 mg",1,2025-01-01,2025-03-26,"Y",3,3,"Upper Respiratory Infection","UPPER RESPIRATORY INFECTION","MILD","N","RECOVERED","2025-06-10","2025-06-20",2025-06-10,2025-06-20,161,171,"FOLLOW-UP","","AE","AESEQ",3
"ABC101","ABC-370","370","Placebo",0,"Placebo",0,2025-01-01,2025-03-26,"Y",1,1,"Dizziness","DIZZINESS","MILD","N","RECOVERED","2025-02-01","2025-02-03",2025-02-01,2025-02-03,32,34,"TREATMENT","Y","AE","AESEQ",1
"ABC101","ABC-370","370","Placebo",0,"Placebo",0,2025-01-01,2025-03-26,"Y",2,2,"Upper Respiratory Infection","UPPER RESPIRATORY INFECTION","MILD","N","RECOVERED","2025-03-28","2025-04-10",2025-03-28,2025-04-10,87,100,"FOLLOW-UP","Y","AE","AESEQ",2
"ABC101","ABC-370","370","Placebo",0,"Placebo",0,2025-01-01,2025-03-26,"Y",3,3,"Dizziness","DIZZINESS","MILD","N","RECOVERED","2025-06-19","2025-06-26",2025-06-19,2025-06-26,170,177,"FOLLOW-UP","","AE","AESEQ",3
"ABC101","ABC-371","371","Placebo",0,"Placebo",0,2025-01-01,2025-03-26,"Y",1,1,"Nausea","NAUSEA","MILD","N","RECOVERED","2025-03-18","2025-03-26",2025-03-18,2025-03-26,77,85,"TREATMENT","Y","AE","AESEQ",1
"ABC101","ABC-372","372","Placebo",0,"Placebo",0,2025-01-01,2025-03-26,"Y",1,1,"Injection Site Reaction","INJECTION SITE REACTION","MODERATE","N","RECOVERED","2025-06-07","2025-06-17",2025-06-07,2025-06-17,158,168,"FOLLOW-UP","","AE","AESEQ",1
"ABC101","ABC-372","372","Placebo",0,"Placebo",0,2025-01-01,2025-03-26,"Y",2,2,"Diarrhea","DIARRHEA","MODERATE","N","RECOVERING","2025-06-05","2025-06-13",2025-06-05,2025-06-13,156,164,"FOLLOW-UP","","AE","AESEQ",2
"ABC101","ABC-374","374","Drug 20 mg",2,"Drug 20 mg",2,2025-01-01,2025-03-26,"Y",1,1,"Diarrhea","DIARRHEA","MODERATE","N","RECOVERED","2025-05-29","2025-06-06",2025-05-29,2025-06-06,149,157,"FOLLOW-UP","","AE","AESEQ",1
"ABC101","ABC-374","374","Drug 20 mg",2,"Drug 20 mg",2,2025-01-01,2025-03-26,"Y",2,2,"Headache","HEADACHE","MODERATE","N","NOT RECOVERED","2025-03-25","2025-04-05",2025-03-25,2025-04-05,84,95,"TREATMENT","Y","AE","AESEQ",2
"ABC101","ABC-374","374","Drug 20 mg",2,"Drug 20 mg",2,2025-01-01,2025-03-26,"Y",3,3,"Upper Respiratory Infection","UPPER RESPIRATORY INFECTION","MILD","N","RECOVERED","2025-06-26","2025-06-27",2025-06-26,2025-06-27,177,178,"FOLLOW-UP","","AE","AESEQ",3
"ABC101","ABC-376","376","Drug 10 mg",1,"Drug 10 mg",1,2025-01-01,2025-03-26,"Y",1,1,"Headache","HEADACHE","MILD","N","RECOVERED","2025-03-06","2025-03-16",2025-03-06,2025-03-16,65,75,"TREATMENT","Y","AE","AESEQ",1
"ABC101","ABC-376","376","Drug 10 mg",1,"Drug 10 mg",1,2025-01-01,2025-03-26,"Y",2,2,"Dizziness","DIZZINESS","MILD","N","RECOVERED","2025-02-21","2025-02-25",2025-02-21,2025-02-25,52,56,"TREATMENT","Y","AE","AESEQ",2
"ABC101","ABC-378","378","Drug 20 mg",2,"Drug 20 mg",2,2025-01-01,2025-03-26,"Y",1,1,"Nausea","NAUSEA","MILD","N","RECOVERED","2025-01-11","2025-01-25",2025-01-11,2025-01-25,11,25,"TREATMENT","Y","AE","AESEQ",1
"ABC101","ABC-378","378","Drug 20 mg",2,"Drug 20 mg",2,2025-01-01,2025-03-26,"Y",2,2,"Abdominal Pain","ABDOMINAL PAIN","MILD","N","NOT RECOVERED","2025-04-16","2025-04-28",2025-04-16,2025-04-28,106,118,"FOLLOW-UP","Y","AE","AESEQ",2
"ABC101","ABC-379","379","Drug 10 mg",1,"Drug 10 mg",1,2025-01-01,2025-03-26,"Y",1,1,"Nausea","NAUSEA","MODERATE","N","RECOVERING","2025-02-05","2025-02-08",2025-02-05,2025-02-08,36,39,"TREATMENT","Y","AE","AESEQ",1
"ABC101","ABC-380","380","Placebo",0,"Placebo",0,2025-01-01,2025-03-26,"Y",1,1,"Fatigue","FATIGUE","MILD","N","RECOVERING","2025-02-12","2025-02-17",2025-02-12,2025-02-17,43,48,"TREATMENT","Y","AE","AESEQ",1
"ABC101","ABC-380","380","Placebo",0,"Placebo",0,2025-01-01,2025-03-26,"Y",2,2,"Nausea","NAUSEA","MODERATE","N","NOT RECOVERED","2025-05-31","2025-06-02",2025-05-31,2025-06-02,151,153,"FOLLOW-UP","","AE","AESEQ",2
"ABC101","ABC-380","380","Placebo",0,"Placebo",0,2025-01-01,2025-03-26,"Y",3,3,"Injection Site Reaction","INJECTION SITE REACTION","MODERATE","N","RECOVERING","2025-01-24","2025-01-31",2025-01-24,2025-01-31,24,31,"TREATMENT","Y","AE","AESEQ",3
"ABC101","ABC-381","381","Placebo",0,"Placebo",0,2025-01-01,2025-03-26,"Y",1,1,"Abdominal Pain","ABDOMINAL PAIN","MILD","N","RECOVERED","2025-01-06","2025-01-16",2025-01-06,2025-01-16,6,16,"TREATMENT","Y","AE","AESEQ",1
"ABC101","ABC-382","382","Placebo",0,"Placebo",0,2025-01-01,2025-03-26,"Y",1,1,"Upper Respiratory Infection","UPPER RESPIRATORY INFECTION","MILD","Y","RECOVERED","2025-05-15","2025-05-22",2025-05-15,2025-05-22,135,142,"FOLLOW-UP","","AE","AESEQ",1
"ABC101","ABC-382","382","Placebo",0,"Placebo",0,2025-01-01,2025-03-26,"Y",2,2,"Headache","HEADACHE","MILD","N","RECOVERED","2025-05-21","2025-05-26",2025-05-21,2025-05-26,141,146,"FOLLOW-UP","","AE","AESEQ",2
"ABC101","ABC-382","382","Placebo",0,"Placebo",0,2025-01-01,2025-03-26,"Y",3,3,"Injection Site Reaction","INJECTION SITE REACTION","MILD","N","RECOVERED","2025-03-23","2025-04-06",2025-03-23,2025-04-06,82,96,"TREATMENT","Y","AE","AESEQ",3
"ABC101","ABC-383","383","Placebo",0,"Placebo",0,2025-01-01,2025-03-26,"Y",1,1,"Upper Respiratory Infection","UPPER RESPIRATORY INFECTION","MILD","N","RECOVERING","2025-06-28","2025-06-29",2025-06-28,2025-06-29,179,180,"FOLLOW-UP","","AE","AESEQ",1
"ABC101","ABC-384","384","Drug 20 mg",2,"Drug 20 mg",2,2025-01-01,2025-03-26,"Y",1,1,"Nausea","NAUSEA","MODERATE","N","RECOVERED","2025-06-04","2025-06-16",2025-06-04,2025-06-16,155,167,"FOLLOW-UP","","AE","AESEQ",1
"ABC101","ABC-386","386","Drug 10 mg",1,"Drug 10 mg",1,2025-01-01,2025-03-26,"Y",1,1,"Dizziness","DIZZINESS","MODERATE","N","RECOVERED","2025-02-05","2025-02-16",2025-02-05,2025-02-16,36,47,"TREATMENT","Y","AE","AESEQ",1
"ABC101","ABC-386","386","Drug 10 mg",1,"Drug 10 mg",1,2025-01-01,2025-03-26,"Y",2,2,"Fatigue","FATIGUE","MILD","N","RECOVERING","2025-03-13","2025-03-22",2025-03-13,2025-03-22,72,81,"TREATMENT","Y","AE","AESEQ",2
"ABC101","ABC-386","386","Drug 10 mg",1,"Drug 10 mg",1,2025-01-01,2025-03-26,"Y",3,3,"Nausea","NAUSEA","MILD","N","NOT RECOVERED","2025-06-08","2025-06-17",2025-06-08,2025-06-17,159,168,"FOLLOW-UP","","AE","AESEQ",3
"ABC101","ABC-387","387","Placebo",0,"Placebo",0,2025-01-01,2025-03-26,"Y",1,1,"Nausea","NAUSEA","MILD","N","RECOVERED","2025-02-17","2025-02-26",2025-02-17,2025-02-26,48,57,"TREATMENT","Y","AE","AESEQ",1
"ABC101","ABC-387","387","Placebo",0,"Placebo",0,2025-01-01,2025-03-26,"Y",2,2,"Abdominal Pain","ABDOMINAL PAIN","MILD","N","RECOVERED","2025-04-26","2025-05-07",2025-04-26,2025-05-07,116,127,"FOLLOW-UP","","AE","AESEQ",2
"ABC101","ABC-387","387","Placebo",0,"Placebo",0,2025-01-01,2025-03-26,"Y",3,3,"Injection Site Reaction","INJECTION SITE REACTION","MILD","N","RECOVERING","2025-03-01","2025-03-07",2025-03-01,2025-03-07,60,66,"TREATMENT","Y","AE","AESEQ",3
"ABC101","ABC-388","388","Drug 20 mg",2,"Drug 20 mg",2,2025-01-01,2025-03-26,"Y",1,1,"Diarrhea","DIARRHEA","MILD","Y","RECOVERED","2025-04-02","2025-04-06",2025-04-02,2025-04-06,92,96,"FOLLOW-UP","Y","AE","AESEQ",1
"ABC101","ABC-389","389","Placebo",0,"Placebo",0,2025-01-01,2025-03-26,"Y",1,1,"Injection Site Reaction","INJECTION SITE REACTION","MODERATE","N","RECOVERED","2025-01-17","2025-01-18",2025-01-17,2025-01-18,17,18,"TREATMENT","Y","AE","AESEQ",1
"ABC101","ABC-389","389","Placebo",0,"Placebo",0,2025-01-01,2025-03-26,"Y",2,2,"Injection Site Reaction","INJECTION SITE REACTION","MODERATE","N","RECOVERED","2025-04-11","2025-04-20",2025-04-11,2025-04-20,101,110,"FOLLOW-UP","Y","AE","AESEQ",2
"ABC101","ABC-389","389","Placebo",0,"Placebo",0,2025-01-01,2025-03-26,"Y",3,3,"Fatigue","FATIGUE","SEVERE","N","RECOVERED","2025-05-13","2025-05-27",2025-05-13,2025-05-27,133,147,"FOLLOW-UP","","AE","AESEQ",3
"ABC101","ABC-391","391","Drug 10 mg",1,"Drug 10 mg",1,2025-01-01,2025-03-26,"Y",1,1,"Dizziness","DIZZINESS","MODERATE","N","RECOVERED","2025-02-18","2025-03-04",2025-02-18,2025-03-04,49,63,"TREATMENT","Y","AE","AESEQ",1
"ABC101","ABC-391","391","Drug 10 mg",1,"Drug 10 mg",1,2025-01-01,2025-03-26,"Y",2,2,"Upper Respiratory Infection","UPPER RESPIRATORY INFECTION","MILD","N","RECOVERED","2025-06-26","2025-07-03",2025-06-26,2025-07-03,177,184,"FOLLOW-UP","","AE","AESEQ",2
"ABC101","ABC-392","392","Drug 10 mg",1,"Drug 10 mg",1,2025-01-01,2025-03-26,"Y",1,1,"Dizziness","DIZZINESS","MILD","N","RECOVERED","2025-03-10","2025-03-13",2025-03-10,2025-03-13,69,72,"TREATMENT","Y","AE","AESEQ",1
"ABC101","ABC-393","393","Drug 10 mg",1,"Drug 10 mg",1,2025-01-01,2025-03-26,"Y",1,1,"Upper Respiratory Infection","UPPER RESPIRATORY INFECTION","SEVERE","N","RECOVERING","2025-02-20","2025-02-28",2025-02-20,2025-02-28,51,59,"TREATMENT","Y","AE","AESEQ",1
"ABC101","ABC-393","393","Drug 10 mg",1,"Drug 10 mg",1,2025-01-01,2025-03-26,"Y",2,2,"Upper Respiratory Infection","UPPER RESPIRATORY INFECTION","MODERATE","N","RECOVERED","2025-05-01","2025-05-13",2025-05-01,2025-05-13,121,133,"FOLLOW-UP","","AE","AESEQ",2
"ABC101","ABC-393","393","Drug 10 mg",1,"Drug 10 mg",1,2025-01-01,2025-03-26,"Y",3,3,"Nausea","NAUSEA","MILD","N","RECOVERING","2025-03-03","2025-03-17",2025-03-03,2025-03-17,62,76,"TREATMENT","Y","AE","AESEQ",3
"ABC101","ABC-393","393","Drug 10 mg",1,"Drug 10 mg",1,2025-01-01,2025-03-26,"Y",4,4,"Injection Site Reaction","INJECTION SITE REACTION","MODERATE","N","RECOVERED","2025-05-09","2025-05-16",2025-05-09,2025-05-16,129,136,"FOLLOW-UP","","AE","AESEQ",4
"ABC101","ABC-394","394","Drug 20 mg",2,"Drug 20 mg",2,2025-01-01,2025-03-26,"Y",1,1,"Diarrhea","DIARRHEA","MILD","N","RECOVERING","2025-03-23","2025-03-28",2025-03-23,2025-03-28,82,87,"TREATMENT","Y","AE","AESEQ",1
"ABC101","ABC-394","394","Drug 20 mg",2,"Drug 20 mg",2,2025-01-01,2025-03-26,"Y",2,2,"Nausea","NAUSEA","MILD","N","RECOVERED","2025-04-22","2025-04-25",2025-04-22,2025-04-25,112,115,"FOLLOW-UP","Y","AE","AESEQ",2
"ABC101","ABC-395","395","Placebo",0,"Placebo",0,2025-01-01,2025-03-26,"Y",1,1,"Fatigue","FATIGUE","MILD","N","RECOVERING","2025-03-18","2025-03-30",2025-03-18,2025-03-30,77,89,"TREATMENT","Y","AE","AESEQ",1
"ABC101","ABC-396","396","Placebo",0,"Placebo",0,2025-01-01,2025-03-26,"Y",1,1,"Upper Respiratory Infection","UPPER RESPIRATORY INFECTION","SEVERE","N","RECOVERED","2025-06-03","2025-06-12",2025-06-03,2025-06-12,154,163,"FOLLOW-UP","","AE","AESEQ",1
"ABC101","ABC-396","396","Placebo",0,"Placebo",0,2025-01-01,2025-03-26,"Y",2,2,"Abdominal Pain","ABDOMINAL PAIN","MILD","N","RECOVERED","2025-04-13","2025-04-25",2025-04-13,2025-04-25,103,115,"FOLLOW-UP","Y","AE","AESEQ",2
"ABC101","ABC-396","396","Placebo",0,"Placebo",0,2025-01-01,2025-03-26,"Y",3,3,"Abdominal Pain","ABDOMINAL PAIN","MILD","N","RECOVERED","2025-05-20","2025-05-30",2025-05-20,2025-05-30,140,150,"FOLLOW-UP","","AE","AESEQ",3
"ABC101","ABC-397","397","Placebo",0,"Placebo",0,2025-01-01,2025-03-26,"Y",1,1,"Upper Respiratory Infection","UPPER RESPIRATORY INFECTION","MILD","N","RECOVERED","2025-01-15","2025-01-23",2025-01-15,2025-01-23,15,23,"TREATMENT","Y","AE","AESEQ",1
"ABC101","ABC-398","398","Drug 10 mg",1,"Drug 10 mg",1,2025-01-01,2025-03-26,"Y",1,1,"Fatigue","FATIGUE","MILD","N","RECOVERING","2025-03-02","2025-03-15",2025-03-02,2025-03-15,61,74,"TREATMENT","Y","AE","AESEQ",1
"ABC101","ABC-398","398","Drug 10 mg",1,"Drug 10 mg",1,2025-01-01,2025-03-26,"Y",2,2,"Injection Site Reaction","INJECTION SITE REACTION","MILD","N","RECOVERED","2025-02-03","2025-02-08",2025-02-03,2025-02-08,34,39,"TREATMENT","Y","AE","AESEQ",2
"ABC101","ABC-399","399","Placebo",0,"Placebo",0,2025-01-01,2025-03-26,"Y",1,1,"Abdominal Pain","ABDOMINAL PAIN","SEVERE","N","RECOVERED","2025-03-23","2025-03-25",2025-03-23,2025-03-25,82,84,"TREATMENT","Y","AE","AESEQ",1
"ABC101","ABC-400","400","Drug 10 mg",1,"Drug 10 mg",1,2025-01-01,2025-03-26,"Y",1,1,"Dizziness","DIZZINESS","MILD","N","RECOVERED","2025-06-05","2025-06-11",2025-06-05,2025-06-11,156,162,"FOLLOW-UP","","AE","AESEQ",1
"ABC101","ABC-400","400","Drug 10 mg",1,"Drug 10 mg",1,2025-01-01,2025-03-26,"Y",2,2,"Headache","HEADACHE","MODERATE","N","RECOVERED","2025-03-19","2025-03-30",2025-03-19,2025-03-30,78,89,"TREATMENT","Y","AE","AESEQ",2
"ABC101","ABC-401","401","Drug 10 mg",1,"Drug 10 mg",1,2025-01-01,2025-03-26,"Y",1,1,"Diarrhea","DIARRHEA","MODERATE","N","RECOVERED","2025-01-25","2025-02-01",2025-01-25,2025-02-01,25,32,"TREATMENT","Y","AE","AESEQ",1
"ABC101","ABC-401","401","Drug 10 mg",1,"Drug 10 mg",1,2025-01-01,2025-03-26,"Y",2,2,"Upper Respiratory Infection","UPPER RESPIRATORY INFECTION","MILD","N","RECOVERED","2025-06-27","2025-07-02",2025-06-27,2025-07-02,178,183,"FOLLOW-UP","","AE","AESEQ",2
"ABC101","ABC-401","401","Drug 10 mg",1,"Drug 10 mg",1,2025-01-01,2025-03-26,"Y",3,3,"Upper Respiratory Infection","UPPER RESPIRATORY INFECTION","MILD","N","RECOVERED","2025-02-23","2025-03-03",2025-02-23,2025-03-03,54,62,"TREATMENT","Y","AE","AESEQ",3
"ABC101","ABC-401","401","Drug 10 mg",1,"Drug 10 mg",1,2025-01-01,2025-03-26,"Y",4,4,"Upper Respiratory Infection","UPPER RESPIRATORY INFECTION","MILD","N","RECOVERED","2025-05-17","2025-05-19",2025-05-17,2025-05-19,137,139,"FOLLOW-UP","","AE","AESEQ",4
"ABC101","ABC-402","402","Drug 10 mg",1,"Drug 10 mg",1,2025-01-01,2025-03-26,"Y",1,1,"Abdominal Pain","ABDOMINAL PAIN","MODERATE","N","NOT RECOVERED","2025-03-26","2025-04-03",2025-03-26,2025-04-03,85,93,"TREATMENT","Y","AE","AESEQ",1
"ABC101","ABC-402","402","Drug 10 mg",1,"Drug 10 mg",1,2025-01-01,2025-03-26,"Y",2,2,"Diarrhea","DIARRHEA","SEVERE","N","RECOVERED","2025-05-27","2025-06-07",2025-05-27,2025-06-07,147,158,"FOLLOW-UP","","AE","AESEQ",2
"ABC101","ABC-402","402","Drug 10 mg",1,"Drug 10 mg",1,2025-01-01,2025-03-26,"Y",3,3,"Dizziness","DIZZINESS","MODERATE","N","RECOVERING","2025-04-04","2025-04-11",2025-04-04,2025-04-11,94,101,"FOLLOW-UP","Y","AE","AESEQ",3
"ABC101","ABC-402","402","Drug 10 mg",1,"Drug 10 mg",1,2025-01-01,2025-03-26,"Y",4,4,"Headache","HEADACHE","MILD","N","RECOVERED","2025-01-11","2025-01-24",2025-01-11,2025-01-24,11,24,"TREATMENT","Y","AE","AESEQ",4
"ABC101","ABC-402","402","Drug 10 mg",1,"Drug 10 mg",1,2025-01-01,2025-03-26,"Y",5,5,"Nausea","NAUSEA","MILD","N","RECOVERED","2025-04-17","2025-04-28",2025-04-17,2025-04-28,107,118,"FOLLOW-UP","Y","AE","AESEQ",5
"ABC101","ABC-402","402","Drug 10 mg",1,"Drug 10 mg",1,2025-01-01,2025-03-26,"Y",6,6,"Fatigue","FATIGUE","MODERATE","N","RECOVERING","2025-02-12","2025-02-16",2025-02-12,2025-02-16,43,47,"TREATMENT","Y","AE","AESEQ",6
"ABC101","ABC-404","404","Placebo",0,"Placebo",0,2025-01-01,2025-03-26,"Y",1,1,"Fatigue","FATIGUE","MILD","N","RECOVERING","2025-01-07","2025-01-21",2025-01-07,2025-01-21,7,21,"TREATMENT","Y","AE","AESEQ",1
"ABC101","ABC-404","404","Placebo",0,"Placebo",0,2025-01-01,2025-03-26,"Y",2,2,"Fatigue","FATIGUE","MODERATE","Y","RECOVERING","2025-03-29","2025-04-02",2025-03-29,2025-04-02,88,92,"FOLLOW-UP","Y","AE","AESEQ",2
"ABC101","ABC-405","405","Drug 10 mg",1,"Drug 10 mg",1,2025-01-01,2025-03-26,"Y",1,1,"Dizziness","DIZZINESS","SEVERE","N","RECOVERED","2025-04-11","2025-04-23",2025-04-11,2025-04-23,101,113,"FOLLOW-UP","Y","AE","AESEQ",1
"ABC101","ABC-407","407","Placebo",0,"Placebo",0,2025-01-01,2025-03-26,"Y",1,1,"Headache","HEADACHE","MILD","N","RECOVERED","2025-04-28","2025-04-29",2025-04-28,2025-04-29,118,119,"FOLLOW-UP","","AE","AESEQ",1
"ABC101","ABC-408","408","Drug 20 mg",2,"Drug 20 mg",2,2025-01-01,2025-03-26,"Y",1,1,"Abdominal Pain","ABDOMINAL PAIN","MILD","N","RECOVERED","2025-02-23","2025-03-08",2025-02-23,2025-03-08,54,67,"TREATMENT","Y","AE","AESEQ",1
"ABC101","ABC-409","409","Placebo",0,"Placebo",0,2025-01-01,2025-03-26,"Y",1,1,"Dizziness","DIZZINESS","MODERATE","N","NOT RECOVERED","2025-04-24","2025-04-25",2025-04-24,2025-04-25,114,115,"FOLLOW-UP","Y","AE","AESEQ",1
"ABC101","ABC-409","409","Placebo",0,"Placebo",0,2025-01-01,2025-03-26,"Y",2,2,"Diarrhea","DIARRHEA","MODERATE","N","RECOVERED","2025-02-27","2025-03-12",2025-02-27,2025-03-12,58,71,"TREATMENT","Y","AE","AESEQ",2
"ABC101","ABC-410","410","Drug 20 mg",2,"Drug 20 mg",2,2025-01-01,2025-03-26,"Y",1,1,"Nausea","NAUSEA","MILD","N","RECOVERED","2025-03-11","2025-03-16",2025-03-11,2025-03-16,70,75,"TREATMENT","Y","AE","AESEQ",1
"ABC101","ABC-412","412","Placebo",0,"Placebo",0,2025-01-01,2025-03-26,"Y",1,1,"Dizziness","DIZZINESS","MODERATE","N","NOT RECOVERED","2025-05-28","2025-06-07",2025-05-28,2025-06-07,148,158,"FOLLOW-UP","","AE","AESEQ",1
"ABC101","ABC-412","412","Placebo",0,"Placebo",0,2025-01-01,2025-03-26,"Y",2,2,"Abdominal Pain","ABDOMINAL PAIN","MILD","N","RECOVERED","2025-02-18","2025-02-23",2025-02-18,2025-02-23,49,54,"TREATMENT","Y","AE","AESEQ",2
"ABC101","ABC-413","413","Drug 10 mg",1,"Drug 10 mg",1,2025-01-01,2025-03-26,"Y",1,1,"Headache","HEADACHE","MODERATE","N","RECOVERED","2025-01-15","2025-01-28",2025-01-15,2025-01-28,15,28,"TREATMENT","Y","AE","AESEQ",1
"ABC101","ABC-413","413","Drug 10 mg",1,"Drug 10 mg",1,2025-01-01,2025-03-26,"Y",2,2,"Dizziness","DIZZINESS","MODERATE","N","RECOVERED","2025-02-18","2025-02-24",2025-02-18,2025-02-24,49,55,"TREATMENT","Y","AE","AESEQ",2
"ABC101","ABC-414","414","Drug 10 mg",1,"Drug 10 mg",1,2025-01-01,2025-03-26,"Y",1,1,"Upper Respiratory Infection","UPPER RESPIRATORY INFECTION","MILD","N","RECOVERING","2025-06-25","2025-07-09",2025-06-25,2025-07-09,176,190,"FOLLOW-UP","","AE","AESEQ",1
"ABC101","ABC-415","415","Placebo",0,"Placebo",0,2025-01-01,2025-03-26,"Y",1,1,"Fatigue","FATIGUE","MILD","N","RECOVERED","2025-05-20","2025-05-27",2025-05-20,2025-05-27,140,147,"FOLLOW-UP","","AE","AESEQ",1
"ABC101","ABC-415","415","Placebo",0,"Placebo",0,2025-01-01,2025-03-26,"Y",2,2,"Headache","HEADACHE","MILD","N","RECOVERING","2025-02-05","2025-02-07",2025-02-05,2025-02-07,36,38,"TREATMENT","Y","AE","AESEQ",2
"ABC101","ABC-416","416","Drug 10 mg",1,"Drug 10 mg",1,2025-01-01,2025-03-26,"Y",1,1,"Abdominal Pain","ABDOMINAL PAIN","MODERATE","N","RECOVERED","2025-02-05","2025-02-11",2025-02-05,2025-02-11,36,42,"TREATMENT","Y","AE","AESEQ",1
"ABC101","ABC-417","417","Placebo",0,"Placebo",0,2025-01-01,2025-03-26,"Y",1,1,"Dizziness","DIZZINESS","MILD","N","RECOVERED","2025-01-26","2025-02-02",2025-01-26,2025-02-02,26,33,"TREATMENT","Y","AE","AESEQ",1
"ABC101","ABC-418","418","Drug 10 mg",1,"Drug 10 mg",1,2025-01-01,2025-03-26,"Y",1,1,"Nausea","NAUSEA","MILD","N","NOT RECOVERED","2025-01-18","2025-01-28",2025-01-18,2025-01-28,18,28,"TREATMENT","Y","AE","AESEQ",1
"ABC101","ABC-418","418","Drug 10 mg",1,"Drug 10 mg",1,2025-01-01,2025-03-26,"Y",2,2,"Nausea","NAUSEA","MODERATE","N","RECOVERING","2025-06-08","2025-06-16",2025-06-08,2025-06-16,159,167,"FOLLOW-UP","","AE","AESEQ",2
"ABC101","ABC-418","418","Drug 10 mg",1,"Drug 10 mg",1,2025-01-01,2025-03-26,"Y",3,3,"Fatigue","FATIGUE","MILD","N","RECOVERED","2025-04-15","2025-04-21",2025-04-15,2025-04-21,105,111,"FOLLOW-UP","Y","AE","AESEQ",3
"ABC101","ABC-419","419","Drug 20 mg",2,"Drug 20 mg",2,2025-01-01,2025-03-26,"Y",1,1,"Injection Site Reaction","INJECTION SITE REACTION","MILD","N","RECOVERING","2025-01-08","2025-01-20",2025-01-08,2025-01-20,8,20,"TREATMENT","Y","AE","AESEQ",1
"ABC101","ABC-419","419","Drug 20 mg",2,"Drug 20 mg",2,2025-01-01,2025-03-26,"Y",2,2,"Headache","HEADACHE","SEVERE","N","NOT RECOVERED","2025-03-17","2025-03-19",2025-03-17,2025-03-19,76,78,"TREATMENT","Y","AE","AESEQ",2
"ABC101","ABC-419","419","Drug 20 mg",2,"Drug 20 mg",2,2025-01-01,2025-03-26,"Y",3,3,"Injection Site Reaction","INJECTION SITE REACTION","MILD","N","RECOVERED","2025-05-04","2025-05-06",2025-05-04,2025-05-06,124,126,"FOLLOW-UP","","AE","AESEQ",3
"ABC101","ABC-419","419","Drug 20 mg",2,"Drug 20 mg",2,2025-01-01,2025-03-26,"Y",4,4,"Injection Site Reaction","INJECTION SITE REACTION","MILD","N","RECOVERED","2025-05-14","2025-05-16",2025-05-14,2025-05-16,134,136,"FOLLOW-UP","","AE","AESEQ",4
"ABC101","ABC-421","421","Drug 20 mg",2,"Drug 20 mg",2,2025-01-01,2025-03-26,"Y",1,1,"Abdominal Pain","ABDOMINAL PAIN","MILD","N","RECOVERED","2025-03-01","2025-03-06",2025-03-01,2025-03-06,60,65,"TREATMENT","Y","AE","AESEQ",1
"ABC101","ABC-422","422","Drug 20 mg",2,"Drug 20 mg",2,2025-01-01,2025-03-26,"Y",1,1,"Nausea","NAUSEA","MILD","N","RECOVERED","2025-04-24","2025-04-28",2025-04-24,2025-04-28,114,118,"FOLLOW-UP","Y","AE","AESEQ",1
"ABC101","ABC-422","422","Drug 20 mg",2,"Drug 20 mg",2,2025-01-01,2025-03-26,"Y",2,2,"Upper Respiratory Infection","UPPER RESPIRATORY INFECTION","MODERATE","N","RECOVERED","2025-03-07","2025-03-11",2025-03-07,2025-03-11,66,70,"TREATMENT","Y","AE","AESEQ",2
"ABC101","ABC-423","423","Drug 10 mg",1,"Drug 10 mg",1,2025-01-01,2025-03-26,"Y",1,1,"Dizziness","DIZZINESS","MODERATE","N","RECOVERING","2025-05-01","2025-05-07",2025-05-01,2025-05-07,121,127,"FOLLOW-UP","","AE","AESEQ",1
"ABC101","ABC-424","424","Drug 10 mg",1,"Drug 10 mg",1,2025-01-01,2025-03-26,"Y",1,1,"Diarrhea","DIARRHEA","MODERATE","N","RECOVERED","2025-06-19","2025-06-22",2025-06-19,2025-06-22,170,173,"FOLLOW-UP","","AE","AESEQ",1
"ABC101","ABC-424","424","Drug 10 mg",1,"Drug 10 mg",1,2025-01-01,2025-03-26,"Y",2,2,"Fatigue","FATIGUE","MODERATE","N","RECOVERING","2025-03-02","2025-03-16",2025-03-02,2025-03-16,61,75,"TREATMENT","Y","AE","AESEQ",2
"ABC101","ABC-424","424","Drug 10 mg",1,"Drug 10 mg",1,2025-01-01,2025-03-26,"Y",3,3,"Headache","HEADACHE","MODERATE","N","RECOVERING","2025-05-29","2025-06-11",2025-05-29,2025-06-11,149,162,"FOLLOW-UP","","AE","AESEQ",3
"ABC101","ABC-424","424","Drug 10 mg",1,"Drug 10 mg",1,2025-01-01,2025-03-26,"Y",4,4,"Headache","HEADACHE","MILD","N","RECOVERING","2025-01-14","2025-01-17",2025-01-14,2025-01-17,14,17,"TREATMENT","Y","AE","AESEQ",4
"ABC101","ABC-424","424","Drug 10 mg",1,"Drug 10 mg",1,2025-01-01,2025-03-26,"Y",5,5,"Nausea","NAUSEA","SEVERE","N","RECOVERED","2025-04-19","2025-04-26",2025-04-19,2025-04-26,109,116,"FOLLOW-UP","Y","AE","AESEQ",5
"ABC101","ABC-424","424","Drug 10 mg",1,"Drug 10 mg",1,2025-01-01,2025-03-26,"Y",6,6,"Diarrhea","DIARRHEA","MODERATE","N","RECOVERING","2025-01-26","2025-02-07",2025-01-26,2025-02-07,26,38,"TREATMENT","Y","AE","AESEQ",6
"ABC101","ABC-425","425","Drug 10 mg",1,"Drug 10 mg",1,2025-01-01,2025-03-26,"Y",1,1,"Injection Site Reaction","INJECTION SITE REACTION","MILD","N","RECOVERED","2025-04-06","2025-04-09",2025-04-06,2025-04-09,96,99,"FOLLOW-UP","Y","AE","AESEQ",1
"ABC101","ABC-427","427","Drug 20 mg",2,"Drug 20 mg",2,2025-01-01,2025-03-26,"Y",1,1,"Headache","HEADACHE","MODERATE","N","RECOVERING","2025-04-26","2025-05-10",2025-04-26,2025-05-10,116,130,"FOLLOW-UP","","AE","AESEQ",1
"ABC101","ABC-427","427","Drug 20 mg",2,"Drug 20 mg",2,2025-01-01,2025-03-26,"Y",2,2,"Abdominal Pain","ABDOMINAL PAIN","MILD","N","RECOVERED","2025-06-27","2025-07-02",2025-06-27,2025-07-02,178,183,"FOLLOW-UP","","AE","AESEQ",2
"ABC101","ABC-427","427","Drug 20 mg",2,"Drug 20 mg",2,2025-01-01,2025-03-26,"Y",3,3,"Abdominal Pain","ABDOMINAL PAIN","MILD","N","RECOVERED","2025-05-18","2025-05-29",2025-05-18,2025-05-29,138,149,"FOLLOW-UP","","AE","AESEQ",3
"ABC101","ABC-427","427","Drug 20 mg",2,"Drug 20 mg",2,2025-01-01,2025-03-26,"Y",4,4,"Dizziness","DIZZINESS","MODERATE","N","RECOVERED","2025-01-28","2025-02-07",2025-01-28,2025-02-07,28,38,"TREATMENT","Y","AE","AESEQ",4
"ABC101","ABC-429","429","Drug 20 mg",2,"Drug 20 mg",2,2025-01-01,2025-03-26,"Y",1,1,"Headache","HEADACHE","MILD","N","RECOVERED","2025-02-20","2025-02-21",2025-02-20,2025-02-21,51,52,"TREATMENT","Y","AE","AESEQ",1
"ABC101","ABC-430","430","Drug 10 mg",1,"Drug 10 mg",1,2025-01-01,2025-03-26,"Y",1,1,"Injection Site Reaction","INJECTION SITE REACTION","MILD","N","RECOVERING","2025-06-11","2025-06-18",2025-06-11,2025-06-18,162,169,"FOLLOW-UP","","AE","AESEQ",1
"ABC101","ABC-430","430","Drug 10 mg",1,"Drug 10 mg",1,2025-01-01,2025-03-26,"Y",2,2,"Upper Respiratory Infection","UPPER RESPIRATORY INFECTION","MILD","N","RECOVERED","2025-04-06","2025-04-18",2025-04-06,2025-04-18,96,108,"FOLLOW-UP","Y","AE","AESEQ",2
"ABC101","ABC-433","433","Drug 10 mg",1,"Drug 10 mg",1,2025-01-01,2025-03-26,"Y",1,1,"Diarrhea","DIARRHEA","MILD","N","RECOVERED","2025-06-02","2025-06-07",2025-06-02,2025-06-07,153,158,"FOLLOW-UP","","AE","AESEQ",1
"ABC101","ABC-433","433","Drug 10 mg",1,"Drug 10 mg",1,2025-01-01,2025-03-26,"Y",2,2,"Upper Respiratory Infection","UPPER RESPIRATORY INFECTION","MILD","N","RECOVERED","2025-03-31","2025-04-02",2025-03-31,2025-04-02,90,92,"FOLLOW-UP","Y","AE","AESEQ",2
"ABC101","ABC-433","433","Drug 10 mg",1,"Drug 10 mg",1,2025-01-01,2025-03-26,"Y",3,3,"Abdominal Pain","ABDOMINAL PAIN","MODERATE","N","RECOVERING","2025-03-06","2025-03-13",2025-03-06,2025-03-13,65,72,"TREATMENT","Y","AE","AESEQ",3
"ABC101","ABC-433","433","Drug 10 mg",1,"Drug 10 mg",1,2025-01-01,2025-03-26,"Y",4,4,"Headache","HEADACHE","MILD","N","RECOVERED","2025-03-06","2025-03-20",2025-03-06,2025-03-20,65,79,"TREATMENT","Y","AE","AESEQ",4
"ABC101","ABC-435","435","Drug 10 mg",1,"Drug 10 mg",1,2025-01-01,2025-03-26,"Y",1,1,"Injection Site Reaction","INJECTION SITE REACTION","MILD","N","RECOVERED","2025-02-13","2025-02-17",2025-02-13,2025-02-17,44,48,"TREATMENT","Y","AE","AESEQ",1
"ABC101","ABC-435","435","Drug 10 mg",1,"Drug 10 mg",1,2025-01-01,2025-03-26,"Y",2,2,"Diarrhea","DIARRHEA","MILD","N","RECOVERED","2025-02-08","2025-02-13",2025-02-08,2025-02-13,39,44,"TREATMENT","Y","AE","AESEQ",2
"ABC101","ABC-436","436","Drug 20 mg",2,"Drug 20 mg",2,2025-01-01,2025-03-26,"Y",1,1,"Upper Respiratory Infection","UPPER RESPIRATORY INFECTION","MILD","N","RECOVERED","2025-04-11","2025-04-14",2025-04-11,2025-04-14,101,104,"FOLLOW-UP","Y","AE","AESEQ",1
"ABC101","ABC-436","436","Drug 20 mg",2,"Drug 20 mg",2,2025-01-01,2025-03-26,"Y",2,2,"Diarrhea","DIARRHEA","MILD","N","RECOVERED","2025-01-25","2025-02-03",2025-01-25,2025-02-03,25,34,"TREATMENT","Y","AE","AESEQ",2
"ABC101","ABC-438","438","Drug 20 mg",2,"Drug 20 mg",2,2025-01-01,2025-03-26,"Y",1,1,"Dizziness","DIZZINESS","MILD","N","RECOVERING","2025-02-15","2025-02-17",2025-02-15,2025-02-17,46,48,"TREATMENT","Y","AE","AESEQ",1
"ABC101","ABC-438","438","Drug 20 mg",2,"Drug 20 mg",2,2025-01-01,2025-03-26,"Y",2,2,"Dizziness","DIZZINESS","MILD","N","RECOVERING","2025-01-21","2025-02-03",2025-01-21,2025-02-03,21,34,"TREATMENT","Y","AE","AESEQ",2
"ABC101","ABC-439","439","Placebo",0,"Placebo",0,2025-01-01,2025-03-26,"Y",1,1,"Fatigue","FATIGUE","MODERATE","N","RECOVERED","2025-04-27","2025-05-02",2025-04-27,2025-05-02,117,122,"FOLLOW-UP","","AE","AESEQ",1
"ABC101","ABC-440","440","Placebo",0,"Placebo",0,2025-01-01,2025-03-26,"Y",1,1,"Abdominal Pain","ABDOMINAL PAIN","MODERATE","N","RECOVERING","2025-04-04","2025-04-14",2025-04-04,2025-04-14,94,104,"FOLLOW-UP","Y","AE","AESEQ",1
"ABC101","ABC-440","440","Placebo",0,"Placebo",0,2025-01-01,2025-03-26,"Y",2,2,"Fatigue","FATIGUE","MODERATE","N","RECOVERING","2025-02-28","2025-03-12",2025-02-28,2025-03-12,59,71,"TREATMENT","Y","AE","AESEQ",2
"ABC101","ABC-442","442","Drug 10 mg",1,"Drug 10 mg",1,2025-01-01,2025-03-26,"Y",1,1,"Injection Site Reaction","INJECTION SITE REACTION","MILD","N","RECOVERED","2025-05-08","2025-05-09",2025-05-08,2025-05-09,128,129,"FOLLOW-UP","","AE","AESEQ",1
"ABC101","ABC-442","442","Drug 10 mg",1,"Drug 10 mg",1,2025-01-01,2025-03-26,"Y",2,2,"Headache","HEADACHE","SEVERE","Y","RECOVERED","2025-01-17","2025-01-25",2025-01-17,2025-01-25,17,25,"TREATMENT","Y","AE","AESEQ",2
"ABC101","ABC-442","442","Drug 10 mg",1,"Drug 10 mg",1,2025-01-01,2025-03-26,"Y",3,3,"Dizziness","DIZZINESS","MILD","N","NOT RECOVERED","2025-06-11","2025-06-14",2025-06-11,2025-06-14,162,165,"FOLLOW-UP","","AE","AESEQ",3
"ABC101","ABC-442","442","Drug 10 mg",1,"Drug 10 mg",1,2025-01-01,2025-03-26,"Y",4,4,"Dizziness","DIZZINESS","MODERATE","N","RECOVERING","2025-06-12","2025-06-14",2025-06-12,2025-06-14,163,165,"FOLLOW-UP","","AE","AESEQ",4
"ABC101","ABC-443","443","Placebo",0,"Placebo",0,2025-01-01,2025-03-26,"Y",1,1,"Dizziness","DIZZINESS","MILD","N","RECOVERED","2025-05-28","2025-06-05",2025-05-28,2025-06-05,148,156,"FOLLOW-UP","","AE","AESEQ",1
"ABC101","ABC-444","444","Placebo",0,"Placebo",0,2025-01-01,2025-03-26,"Y",1,1,"Injection Site Reaction","INJECTION SITE REACTION","MILD","N","RECOVERING","2025-03-13","2025-03-22",2025-03-13,2025-03-22,72,81,"TREATMENT","Y","AE","AESEQ",1
"ABC101","ABC-445","445","Drug 20 mg",2,"Drug 20 mg",2,2025-01-01,2025-03-26,"Y",1,1,"Fatigue","FATIGUE","MODERATE","N","RECOVERED","2025-04-18","2025-04-23",2025-04-18,2025-04-23,108,113,"FOLLOW-UP","Y","AE","AESEQ",1
"ABC101","ABC-445","445","Drug 20 mg",2,"Drug 20 mg",2,2025-01-01,2025-03-26,"Y",2,2,"Abdominal Pain","ABDOMINAL PAIN","MODERATE","N","RECOVERED","2025-02-03","2025-02-08",2025-02-03,2025-02-08,34,39,"TREATMENT","Y","AE","AESEQ",2
"ABC101","ABC-445","445","Drug 20 mg",2,"Drug 20 mg",2,2025-01-01,2025-03-26,"Y",3,3,"Nausea","NAUSEA","MODERATE","N","RECOVERED","2025-01-31","2025-02-01",2025-01-31,2025-02-01,31,32,"TREATMENT","Y","AE","AESEQ",3
"ABC101","ABC-445","445","Drug 20 mg",2,"Drug 20 mg",2,2025-01-01,2025-03-26,"Y",4,4,"Fatigue","FATIGUE","MILD","N","RECOVERED","2025-06-07","2025-06-10",2025-06-07,2025-06-10,158,161,"FOLLOW-UP","","AE","AESEQ",4
"ABC101","ABC-447","447","Placebo",0,"Placebo",0,2025-01-01,2025-03-26,"Y",1,1,"Abdominal Pain","ABDOMINAL PAIN","MILD","N","RECOVERED","2025-05-01","2025-05-06",2025-05-01,2025-05-06,121,126,"FOLLOW-UP","","AE","AESEQ",1
"ABC101","ABC-447","447","Placebo",0,"Placebo",0,2025-01-01,2025-03-26,"Y",2,2,"Diarrhea","DIARRHEA","MILD","N","NOT RECOVERED","2025-02-04","2025-02-10",2025-02-04,2025-02-10,35,41,"TREATMENT","Y","AE","AESEQ",2
"ABC101","ABC-449","449","Placebo",0,"Placebo",0,2025-01-01,2025-03-26,"Y",1,1,"Upper Respiratory Infection","UPPER RESPIRATORY INFECTION","MILD","N","RECOVERING","2025-06-13","2025-06-18",2025-06-13,2025-06-18,164,169,"FOLLOW-UP","","AE","AESEQ",1
"ABC101","ABC-449","449","Placebo",0,"Placebo",0,2025-01-01,2025-03-26,"Y",2,2,"Fatigue","FATIGUE","MILD","N","RECOVERED","2025-01-26","2025-02-08",2025-01-26,2025-02-08,26,39,"TREATMENT","Y","AE","AESEQ",2
"ABC101","ABC-450","450","Placebo",0,"Placebo",0,2025-01-01,2025-03-26,"Y",1,1,"Dizziness","DIZZINESS","MILD","N","NOT RECOVERED","2025-02-10","2025-02-22",2025-02-10,2025-02-22,41,53,"TREATMENT","Y","AE","AESEQ",1
"ABC101","ABC-450","450","Placebo",0,"Placebo",0,2025-01-01,2025-03-26,"Y",2,2,"Diarrhea","DIARRHEA","MODERATE","N","RECOVERING","2025-02-07","2025-02-21",2025-02-07,2025-02-21,38,52,"TREATMENT","Y","AE","AESEQ",2
"ABC101","ABC-453","453","Drug 10 mg",1,"Drug 10 mg",1,2025-01-01,2025-03-26,"Y",1,1,"Nausea","NAUSEA","MILD","N","RECOVERED","2025-05-01","2025-05-11",2025-05-01,2025-05-11,121,131,"FOLLOW-UP","","AE","AESEQ",1
"ABC101","ABC-454","454","Placebo",0,"Placebo",0,2025-01-01,2025-03-26,"Y",1,1,"Injection Site Reaction","INJECTION SITE REACTION","MODERATE","N","RECOVERED","2025-01-29","2025-02-07",2025-01-29,2025-02-07,29,38,"TREATMENT","Y","AE","AESEQ",1
"ABC101","ABC-454","454","Placebo",0,"Placebo",0,2025-01-01,2025-03-26,"Y",2,2,"Fatigue","FATIGUE","MILD","N","RECOVERED","2025-03-16","2025-03-25",2025-03-16,2025-03-25,75,84,"TREATMENT","Y","AE","AESEQ",2
"ABC101","ABC-454","454","Placebo",0,"Placebo",0,2025-01-01,2025-03-26,"Y",3,3,"Fatigue","FATIGUE","MODERATE","N","RECOVERED","2025-06-04","2025-06-09",2025-06-04,2025-06-09,155,160,"FOLLOW-UP","","AE","AESEQ",3
"ABC101","ABC-455","455","Drug 10 mg",1,"Drug 10 mg",1,2025-01-01,2025-03-26,"Y",1,1,"Abdominal Pain","ABDOMINAL PAIN","MILD","N","RECOVERED","2025-06-05","2025-06-19",2025-06-05,2025-06-19,156,170,"FOLLOW-UP","","AE","AESEQ",1
"ABC101","ABC-456","456","Drug 10 mg",1,"Drug 10 mg",1,2025-01-01,2025-03-26,"Y",1,1,"Headache","HEADACHE","SEVERE","N","RECOVERING","2025-01-28","2025-02-06",2025-01-28,2025-02-06,28,37,"TREATMENT","Y","AE","AESEQ",1
"ABC101","ABC-457","457","Placebo",0,"Placebo",0,2025-01-01,2025-03-26,"Y",1,1,"Dizziness","DIZZINESS","MODERATE","N","RECOVERED","2025-01-31","2025-02-11",2025-01-31,2025-02-11,31,42,"TREATMENT","Y","AE","AESEQ",1
"ABC101","ABC-457","457","Placebo",0,"Placebo",0,2025-01-01,2025-03-26,"Y",2,2,"Diarrhea","DIARRHEA","MILD","N","NOT RECOVERED","2025-06-24","2025-07-05",2025-06-24,2025-07-05,175,186,"FOLLOW-UP","","AE","AESEQ",2
"ABC101","ABC-457","457","Placebo",0,"Placebo",0,2025-01-01,2025-03-26,"Y",3,3,"Injection Site Reaction","INJECTION SITE REACTION","MODERATE","N","RECOVERING","2025-03-20","2025-03-31",2025-03-20,2025-03-31,79,90,"TREATMENT","Y","AE","AESEQ",3
"ABC101","ABC-458","458","Drug 20 mg",2,"Drug 20 mg",2,2025-01-01,2025-03-26,"Y",1,1,"Nausea","NAUSEA","MILD","N","NOT RECOVERED","2025-05-16","2025-05-26",2025-05-16,2025-05-26,136,146,"FOLLOW-UP","","AE","AESEQ",1
"ABC101","ABC-458","458","Drug 20 mg",2,"Drug 20 mg",2,2025-01-01,2025-03-26,"Y",2,2,"Headache","HEADACHE","MILD","N","RECOVERED","2025-05-18","2025-05-23",2025-05-18,2025-05-23,138,143,"FOLLOW-UP","","AE","AESEQ",2
"ABC101","ABC-462","462","Drug 20 mg",2,"Drug 20 mg",2,2025-01-01,2025-03-26,"Y",1,1,"Abdominal Pain","ABDOMINAL PAIN","MILD","N","RECOVERED","2025-05-13","2025-05-19",2025-05-13,2025-05-19,133,139,"FOLLOW-UP","","AE","AESEQ",1
"ABC101","ABC-463","463","Placebo",0,"Placebo",0,2025-01-01,2025-03-26,"Y",1,1,"Headache","HEADACHE","MILD","N","RECOVERING","2025-02-11","2025-02-12",2025-02-11,2025-02-12,42,43,"TREATMENT","Y","AE","AESEQ",1
"ABC101","ABC-463","463","Placebo",0,"Placebo",0,2025-01-01,2025-03-26,"Y",2,2,"Upper Respiratory Infection","UPPER RESPIRATORY INFECTION","MILD","N","RECOVERED","2025-01-11","2025-01-19",2025-01-11,2025-01-19,11,19,"TREATMENT","Y","AE","AESEQ",2
"ABC101","ABC-464","464","Drug 10 mg",1,"Drug 10 mg",1,2025-01-01,2025-03-26,"Y",1,1,"Abdominal Pain","ABDOMINAL PAIN","MODERATE","N","RECOVERED","2025-06-09","2025-06-17",2025-06-09,2025-06-17,160,168,"FOLLOW-UP","","AE","AESEQ",1
"ABC101","ABC-464","464","Drug 10 mg",1,"Drug 10 mg",1,2025-01-01,2025-03-26,"Y",2,2,"Fatigue","FATIGUE","MILD","N","RECOVERED","2025-04-18","2025-04-30",2025-04-18,2025-04-30,108,120,"FOLLOW-UP","Y","AE","AESEQ",2
"ABC101","ABC-464","464","Drug 10 mg",1,"Drug 10 mg",1,2025-01-01,2025-03-26,"Y",3,3,"Diarrhea","DIARRHEA","MILD","N","RECOVERED","2025-06-15","2025-06-24",2025-06-15,2025-06-24,166,175,"FOLLOW-UP","","AE","AESEQ",3
"ABC101","ABC-465","465","Drug 20 mg",2,"Drug 20 mg",2,2025-01-01,2025-03-26,"Y",1,1,"Abdominal Pain","ABDOMINAL PAIN","MILD","N","RECOVERED","2025-03-12","2025-03-21",2025-03-12,2025-03-21,71,80,"TREATMENT","Y","AE","AESEQ",1
"ABC101","ABC-465","465","Drug 20 mg",2,"Drug 20 mg",2,2025-01-01,2025-03-26,"Y",2,2,"Diarrhea","DIARRHEA","MILD","N","RECOVERED","2025-04-13","2025-04-27",2025-04-13,2025-04-27,103,117,"FOLLOW-UP","Y","AE","AESEQ",2
"ABC101","ABC-465","465","Drug 20 mg",2,"Drug 20 mg",2,2025-01-01,2025-03-26,"Y",3,3,"Fatigue","FATIGUE","MILD","N","RECOVERED","2025-06-12","2025-06-24",2025-06-12,2025-06-24,163,175,"FOLLOW-UP","","AE","AESEQ",3
"ABC101","ABC-466","466","Drug 10 mg",1,"Drug 10 mg",1,2025-01-01,2025-03-26,"Y",1,1,"Fatigue","FATIGUE","MILD","N","RECOVERING","2025-04-22","2025-04-26",2025-04-22,2025-04-26,112,116,"FOLLOW-UP","Y","AE","AESEQ",1
"ABC101","ABC-466","466","Drug 10 mg",1,"Drug 10 mg",1,2025-01-01,2025-03-26,"Y",2,2,"Fatigue","FATIGUE","MODERATE","N","RECOVERING","2025-02-14","2025-02-17",2025-02-14,2025-02-17,45,48,"TREATMENT","Y","AE","AESEQ",2
"ABC101","ABC-466","466","Drug 10 mg",1,"Drug 10 mg",1,2025-01-01,2025-03-26,"Y",3,3,"Injection Site Reaction","INJECTION SITE REACTION","MILD","N","RECOVERED","2025-01-27","2025-02-09",2025-01-27,2025-02-09,27,40,"TREATMENT","Y","AE","AESEQ",3
"ABC101","ABC-466","466","Drug 10 mg",1,"Drug 10 mg",1,2025-01-01,2025-03-26,"Y",4,4,"Abdominal Pain","ABDOMINAL PAIN","MODERATE","N","RECOVERED","2025-02-05","2025-02-08",2025-02-05,2025-02-08,36,39,"TREATMENT","Y","AE","AESEQ",4
"ABC101","ABC-467","467","Drug 10 mg",1,"Drug 10 mg",1,2025-01-01,2025-03-26,"Y",1,1,"Diarrhea","DIARRHEA","MILD","N","NOT RECOVERED","2025-03-15","2025-03-18",2025-03-15,2025-03-18,74,77,"TREATMENT","Y","AE","AESEQ",1
"ABC101","ABC-468","468","Drug 20 mg",2,"Drug 20 mg",2,2025-01-01,2025-03-26,"Y",1,1,"Dizziness","DIZZINESS","MILD","N","RECOVERED","2025-02-24","2025-03-08",2025-02-24,2025-03-08,55,67,"TREATMENT","Y","AE","AESEQ",1
"ABC101","ABC-469","469","Placebo",0,"Placebo",0,2025-01-01,2025-03-26,"Y",1,1,"Fatigue","FATIGUE","MODERATE","N","RECOVERING","2025-05-13","2025-05-15",2025-05-13,2025-05-15,133,135,"FOLLOW-UP","","AE","AESEQ",1
"ABC101","ABC-469","469","Placebo",0,"Placebo",0,2025-01-01,2025-03-26,"Y",2,2,"Fatigue","FATIGUE","MILD","N","RECOVERED","2025-05-06","2025-05-14",2025-05-06,2025-05-14,126,134,"FOLLOW-UP","","AE","AESEQ",2
"ABC101","ABC-469","469","Placebo",0,"Placebo",0,2025-01-01,2025-03-26,"Y",3,3,"Diarrhea","DIARRHEA","MODERATE","N","NOT RECOVERED","2025-05-20","2025-06-01",2025-05-20,2025-06-01,140,152,"FOLLOW-UP","","AE","AESEQ",3
"ABC101","ABC-470","470","Drug 10 mg",1,"Drug 10 mg",1,2025-01-01,2025-03-26,"Y",1,1,"Headache","HEADACHE","MILD","N","RECOVERED","2025-02-04","2025-02-16",2025-02-04,2025-02-16,35,47,"TREATMENT","Y","AE","AESEQ",1
"ABC101","ABC-471","471","Placebo",0,"Placebo",0,2025-01-01,2025-03-26,"Y",1,1,"Injection Site Reaction","INJECTION SITE REACTION","MODERATE","N","RECOVERED","2025-04-02","2025-04-08",2025-04-02,2025-04-08,92,98,"FOLLOW-UP","Y","AE","AESEQ",1
"ABC101","ABC-471","471","Placebo",0,"Placebo",0,2025-01-01,2025-03-26,"Y",2,2,"Injection Site Reaction","INJECTION SITE REACTION","MILD","N","RECOVERED","2025-01-30","2025-02-07",2025-01-30,2025-02-07,30,38,"TREATMENT","Y","AE","AESEQ",2
"ABC101","ABC-471","471","Placebo",0,"Placebo",0,2025-01-01,2025-03-26,"Y",3,3,"Upper Respiratory Infection","UPPER RESPIRATORY INFECTION","MODERATE","N","RECOVERED","2025-06-11","2025-06-24",2025-06-11,2025-06-24,162,175,"FOLLOW-UP","","AE","AESEQ",3
"ABC101","ABC-471","471","Placebo",0,"Placebo",0,2025-01-01,2025-03-26,"Y",4,4,"Fatigue","FATIGUE","MILD","N","RECOVERED","2025-06-04","2025-06-09",2025-06-04,2025-06-09,155,160,"FOLLOW-UP","","AE","AESEQ",4
"ABC101","ABC-471","471","Placebo",0,"Placebo",0,2025-01-01,2025-03-26,"Y",5,5,"Upper Respiratory Infection","UPPER RESPIRATORY INFECTION","MILD","N","RECOVERED","2025-03-27","2025-04-03",2025-03-27,2025-04-03,86,93,"FOLLOW-UP","Y","AE","AESEQ",5
"ABC101","ABC-472","472","Drug 20 mg",2,"Drug 20 mg",2,2025-01-01,2025-03-26,"Y",1,1,"Injection Site Reaction","INJECTION SITE REACTION","MILD","N","RECOVERED","2025-04-10","2025-04-20",2025-04-10,2025-04-20,100,110,"FOLLOW-UP","Y","AE","AESEQ",1
"ABC101","ABC-472","472","Drug 20 mg",2,"Drug 20 mg",2,2025-01-01,2025-03-26,"Y",2,2,"Upper Respiratory Infection","UPPER RESPIRATORY INFECTION","MILD","N","RECOVERED","2025-04-29","2025-05-07",2025-04-29,2025-05-07,119,127,"FOLLOW-UP","","AE","AESEQ",2
"ABC101","ABC-473","473","Placebo",0,"Placebo",0,2025-01-01,2025-03-26,"Y",1,1,"Diarrhea","DIARRHEA","MILD","N","RECOVERED","2025-06-03","2025-06-16",2025-06-03,2025-06-16,154,167,"FOLLOW-UP","","AE","AESEQ",1
"ABC101","ABC-473","473","Placebo",0,"Placebo",0,2025-01-01,2025-03-26,"Y",2,2,"Fatigue","FATIGUE","MILD","N","NOT RECOVERED","2025-02-14","2025-02-26",2025-02-14,2025-02-26,45,57,"TREATMENT","Y","AE","AESEQ",2
"ABC101","ABC-474","474","Drug 20 mg",2,"Drug 20 mg",2,2025-01-01,2025-03-26,"Y",1,1,"Nausea","NAUSEA","MILD","N","RECOVERED","2025-01-09","2025-01-17",2025-01-09,2025-01-17,9,17,"TREATMENT","Y","AE","AESEQ",1
"ABC101","ABC-476","476","Placebo",0,"Placebo",0,2025-01-01,2025-03-26,"Y",1,1,"Upper Respiratory Infection","UPPER RESPIRATORY INFECTION","MODERATE","N","RECOVERING","2025-03-04","2025-03-17",2025-03-04,2025-03-17,63,76,"TREATMENT","Y","AE","AESEQ",1
"ABC101","ABC-476","476","Placebo",0,"Placebo",0,2025-01-01,2025-03-26,"Y",2,2,"Headache","HEADACHE","MODERATE","N","RECOVERING","2025-01-10","2025-01-14",2025-01-10,2025-01-14,10,14,"TREATMENT","Y","AE","AESEQ",2
"ABC101","ABC-476","476","Placebo",0,"Placebo",0,2025-01-01,2025-03-26,"Y",3,3,"Dizziness","DIZZINESS","MILD","N","RECOVERED","2025-04-13","2025-04-17",2025-04-13,2025-04-17,103,107,"FOLLOW-UP","Y","AE","AESEQ",3
"ABC101","ABC-479","479","Drug 20 mg",2,"Drug 20 mg",2,2025-01-01,2025-03-26,"Y",1,1,"Abdominal Pain","ABDOMINAL PAIN","MODERATE","N","RECOVERED","2025-05-12","2025-05-18",2025-05-12,2025-05-18,132,138,"FOLLOW-UP","","AE","AESEQ",1
"ABC101","ABC-480","480","Drug 20 mg",2,"Drug 20 mg",2,2025-01-01,2025-03-26,"Y",1,1,"Headache","HEADACHE","MILD","N","RECOVERED","2025-06-10","2025-06-12",2025-06-10,2025-06-12,161,163,"FOLLOW-UP","","AE","AESEQ",1
"ABC101","ABC-481","481","Drug 20 mg",2,"Drug 20 mg",2,2025-01-01,2025-03-26,"Y",1,1,"Injection Site Reaction","INJECTION SITE REACTION","MILD","N","RECOVERING","2025-01-25","2025-02-04",2025-01-25,2025-02-04,25,35,"TREATMENT","Y","AE","AESEQ",1
"ABC101","ABC-481","481","Drug 20 mg",2,"Drug 20 mg",2,2025-01-01,2025-03-26,"Y",2,2,"Diarrhea","DIARRHEA","MODERATE","N","RECOVERED","2025-06-27","2025-06-30",2025-06-27,2025-06-30,178,181,"FOLLOW-UP","","AE","AESEQ",2
"ABC101","ABC-481","481","Drug 20 mg",2,"Drug 20 mg",2,2025-01-01,2025-03-26,"Y",3,3,"Nausea","NAUSEA","MILD","N","RECOVERED","2025-04-11","2025-04-21",2025-04-11,2025-04-21,101,111,"FOLLOW-UP","Y","AE","AESEQ",3
"ABC101","ABC-482","482","Drug 20 mg",2,"Drug 20 mg",2,2025-01-01,2025-03-26,"Y",1,1,"Headache","HEADACHE","MILD","N","RECOVERED","2025-01-25","2025-02-07",2025-01-25,2025-02-07,25,38,"TREATMENT","Y","AE","AESEQ",1
"ABC101","ABC-483","483","Drug 10 mg",1,"Drug 10 mg",1,2025-01-01,2025-03-26,"Y",1,1,"Diarrhea","DIARRHEA","MODERATE","N","NOT RECOVERED","2025-05-07","2025-05-09",2025-05-07,2025-05-09,127,129,"FOLLOW-UP","","AE","AESEQ",1
"ABC101","ABC-484","484","Drug 20 mg",2,"Drug 20 mg",2,2025-01-01,2025-03-26,"Y",1,1,"Abdominal Pain","ABDOMINAL PAIN","MILD","N","RECOVERING","2025-04-11","2025-04-14",2025-04-11,2025-04-14,101,104,"FOLLOW-UP","Y","AE","AESEQ",1
"ABC101","ABC-484","484","Drug 20 mg",2,"Drug 20 mg",2,2025-01-01,2025-03-26,"Y",2,2,"Upper Respiratory Infection","UPPER RESPIRATORY INFECTION","MILD","N","NOT RECOVERED","2025-01-05","2025-01-09",2025-01-05,2025-01-09,5,9,"TREATMENT","Y","AE","AESEQ",2
"ABC101","ABC-484","484","Drug 20 mg",2,"Drug 20 mg",2,2025-01-01,2025-03-26,"Y",3,3,"Fatigue","FATIGUE","MILD","N","RECOVERING","2025-05-31","2025-06-12",2025-05-31,2025-06-12,151,163,"FOLLOW-UP","","AE","AESEQ",3
"ABC101","ABC-485","485","Drug 20 mg",2,"Drug 20 mg",2,2025-01-01,2025-03-26,"Y",1,1,"Dizziness","DIZZINESS","MILD","N","RECOVERED","2025-04-21","2025-05-03",2025-04-21,2025-05-03,111,123,"FOLLOW-UP","Y","AE","AESEQ",1
"ABC101","ABC-485","485","Drug 20 mg",2,"Drug 20 mg",2,2025-01-01,2025-03-26,"Y",2,2,"Fatigue","FATIGUE","MILD","N","RECOVERED","2025-06-29","2025-06-30",2025-06-29,2025-06-30,180,181,"FOLLOW-UP","","AE","AESEQ",2
"ABC101","ABC-485","485","Drug 20 mg",2,"Drug 20 mg",2,2025-01-01,2025-03-26,"Y",3,3,"Injection Site Reaction","INJECTION SITE REACTION","MILD","N","RECOVERED","2025-03-20","2025-03-27",2025-03-20,2025-03-27,79,86,"TREATMENT","Y","AE","AESEQ",3
"ABC101","ABC-486","486","Drug 10 mg",1,"Drug 10 mg",1,2025-01-01,2025-03-26,"Y",1,1,"Dizziness","DIZZINESS","MILD","N","RECOVERED","2025-06-06","2025-06-17",2025-06-06,2025-06-17,157,168,"FOLLOW-UP","","AE","AESEQ",1
"ABC101","ABC-486","486","Drug 10 mg",1,"Drug 10 mg",1,2025-01-01,2025-03-26,"Y",2,2,"Upper Respiratory Infection","UPPER RESPIRATORY INFECTION","MODERATE","N","NOT RECOVERED","2025-04-10","2025-04-24",2025-04-10,2025-04-24,100,114,"FOLLOW-UP","Y","AE","AESEQ",2
"ABC101","ABC-486","486","Drug 10 mg",1,"Drug 10 mg",1,2025-01-01,2025-03-26,"Y",3,3,"Abdominal Pain","ABDOMINAL PAIN","MILD","N","NOT RECOVERED","2025-06-17","2025-06-29",2025-06-17,2025-06-29,168,180,"FOLLOW-UP","","AE","AESEQ",3
"ABC101","ABC-486","486","Drug 10 mg",1,"Drug 10 mg",1,2025-01-01,2025-03-26,"Y",4,4,"Diarrhea","DIARRHEA","MILD","N","RECOVERED","2025-06-10","2025-06-22",2025-06-10,2025-06-22,161,173,"FOLLOW-UP","","AE","AESEQ",4
"ABC101","ABC-487","487","Drug 20 mg",2,"Drug 20 mg",2,2025-01-01,2025-03-26,"Y",1,1,"Fatigue","FATIGUE","MILD","N","RECOVERED","2025-03-10","2025-03-23",2025-03-10,2025-03-23,69,82,"TREATMENT","Y","AE","AESEQ",1
"ABC101","ABC-489","489","Drug 20 mg",2,"Drug 20 mg",2,2025-01-01,2025-03-26,"Y",1,1,"Diarrhea","DIARRHEA","MODERATE","N","RECOVERED","2025-06-21","2025-07-03",2025-06-21,2025-07-03,172,184,"FOLLOW-UP","","AE","AESEQ",1
"ABC101","ABC-490","490","Drug 20 mg",2,"Drug 20 mg",2,2025-01-01,2025-03-26,"Y",1,1,"Dizziness","DIZZINESS","MILD","N","RECOVERING","2025-01-16","2025-01-22",2025-01-16,2025-01-22,16,22,"TREATMENT","Y","AE","AESEQ",1
"ABC101","ABC-490","490","Drug 20 mg",2,"Drug 20 mg",2,2025-01-01,2025-03-26,"Y",2,2,"Diarrhea","DIARRHEA","MILD","N","RECOVERING","2025-01-11","2025-01-25",2025-01-11,2025-01-25,11,25,"TREATMENT","Y","AE","AESEQ",2
"ABC101","ABC-492","492","Drug 10 mg",1,"Drug 10 mg",1,2025-01-01,2025-03-26,"Y",1,1,"Diarrhea","DIARRHEA","MODERATE","N","RECOVERING","2025-01-09","2025-01-20",2025-01-09,2025-01-20,9,20,"TREATMENT","Y","AE","AESEQ",1
"ABC101","ABC-493","493","Drug 20 mg",2,"Drug 20 mg",2,2025-01-01,2025-03-26,"Y",1,1,"Abdominal Pain","ABDOMINAL PAIN","MILD","N","RECOVERED","2025-01-14","2025-01-22",2025-01-14,2025-01-22,14,22,"TREATMENT","Y","AE","AESEQ",1
"ABC101","ABC-493","493","Drug 20 mg",2,"Drug 20 mg",2,2025-01-01,2025-03-26,"Y",2,2,"Fatigue","FATIGUE","MODERATE","N","RECOVERED","2025-04-28","2025-05-02",2025-04-28,2025-05-02,118,122,"FOLLOW-UP","","AE","AESEQ",2
"ABC101","ABC-493","493","Drug 20 mg",2,"Drug 20 mg",2,2025-01-01,2025-03-26,"Y",3,3,"Dizziness","DIZZINESS","MODERATE","N","RECOVERED","2025-02-03","2025-02-16",2025-02-03,2025-02-16,34,47,"TREATMENT","Y","AE","AESEQ",3
"ABC101","ABC-494","494","Placebo",0,"Placebo",0,2025-01-01,2025-03-26,"Y",1,1,"Abdominal Pain","ABDOMINAL PAIN","MILD","N","RECOVERED","2025-03-28","2025-04-02",2025-03-28,2025-04-02,87,92,"FOLLOW-UP","Y","AE","AESEQ",1
"ABC101","ABC-494","494","Placebo",0,"Placebo",0,2025-01-01,2025-03-26,"Y",2,2,"Fatigue","FATIGUE","MILD","N","RECOVERED","2025-06-25","2025-06-29",2025-06-25,2025-06-29,176,180,"FOLLOW-UP","","AE","AESEQ",2
"ABC101","ABC-495","495","Placebo",0,"Placebo",0,2025-01-01,2025-03-26,"Y",1,1,"Abdominal Pain","ABDOMINAL PAIN","MODERATE","N","RECOVERED","2025-02-09","2025-02-13",2025-02-09,2025-02-13,40,44,"TREATMENT","Y","AE","AESEQ",1
"ABC101","ABC-495","495","Placebo",0,"Placebo",0,2025-01-01,2025-03-26,"Y",2,2,"Injection Site Reaction","INJECTION SITE REACTION","MODERATE","N","RECOVERED","2025-02-21","2025-03-02",2025-02-21,2025-03-02,52,61,"TREATMENT","Y","AE","AESEQ",2
"ABC101","ABC-495","495","Placebo",0,"Placebo",0,2025-01-01,2025-03-26,"Y",3,3,"Upper Respiratory Infection","UPPER RESPIRATORY INFECTION","MODERATE","N","RECOVERED","2025-02-25","2025-03-01",2025-02-25,2025-03-01,56,60,"TREATMENT","Y","AE","AESEQ",3
"ABC101","ABC-496","496","Placebo",0,"Placebo",0,2025-01-01,2025-03-26,"Y",1,1,"Nausea","NAUSEA","MILD","N","RECOVERED","2025-06-22","2025-06-24",2025-06-22,2025-06-24,173,175,"FOLLOW-UP","","AE","AESEQ",1
"ABC101","ABC-496","496","Placebo",0,"Placebo",0,2025-01-01,2025-03-26,"Y",2,2,"Headache","HEADACHE","MILD","N","RECOVERED","2025-03-15","2025-03-18",2025-03-15,2025-03-18,74,77,"TREATMENT","Y","AE","AESEQ",2
"ABC101","ABC-497","497","Drug 20 mg",2,"Drug 20 mg",2,2025-01-01,2025-03-26,"Y",1,1,"Injection Site Reaction","INJECTION SITE REACTION","MILD","N","RECOVERED","2025-04-19","2025-04-24",2025-04-19,2025-04-24,109,114,"FOLLOW-UP","Y","AE","AESEQ",1
"ABC101","ABC-497","497","Drug 20 mg",2,"Drug 20 mg",2,2025-01-01,2025-03-26,"Y",2,2,"Headache","HEADACHE","MILD","N","RECOVERED","2025-01-14","2025-01-24",2025-01-14,2025-01-24,14,24,"TREATMENT","Y","AE","AESEQ",2
"ABC101","ABC-499","499","Drug 20 mg",2,"Drug 20 mg",2,2025-01-01,2025-03-26,"Y",1,1,"Nausea","NAUSEA","MILD","N","RECOVERED","2025-06-12","2025-06-20",2025-06-12,2025-06-20,163,171,"FOLLOW-UP","","AE","AESEQ",1
"ABC101","ABC-500","500","Placebo",0,"Placebo",0,2025-01-01,2025-03-26,"Y",1,1,"Dizziness","DIZZINESS","MILD","N","RECOVERED","2025-01-30","2025-02-12",2025-01-30,2025-02-12,30,43,"TREATMENT","Y","AE","AESEQ",1
